time,seconds_elapsed,z,y,x
1741199023836106500,0.0761064453125,-4.379032830348611,-1.1493524059534073,0.8715095703020691
1741199023846077400,0.086077392578125,-3.026615766352415,-1.2796499339491128,0.31451398544460535
1741199023856048600,0.096048583984375,-1.9617817185163497,-1.5659516781270504,0.1314350075930357
1741199023866019600,0.10601953125,-1.4242407757133244,-1.7498282360970974,-0.24718553932011125
1741199023875990300,0.115990234375,-1.2282605229735373,-1.769081218099594,-0.6681825349960476
1741199023885961500,0.12596142578125,-1.1000117442011832,-1.571823200508952,-1.093586898785457
1741199023895932400,0.135932373046875,-0.9705150111943482,-1.1070306830525398,-1.6084923044756054
1741199023905903600,0.145903564453125,-1.044110408759117,-0.5652110400170087,-1.9524676544651387
1741199023915874600,0.15587451171875,-1.242751989662647,-0.011432663640379905,-2.2729060615226624
1741199023925845500,0.165845458984375,-1.4962965426206587,0.5478893183380366,-2.6560768190860746
1741199023935816400,0.17581640625,-1.7402970221638678,0.9612398178488015,-2.8616081595033407
1741199023945787400,0.185787353515625,-1.8630407737791537,1.2440081272035837,-2.881178244630992
1741199023955758600,0.195758544921875,-1.8686510148763655,1.4813105704128742,-2.8987948576033116
1741199023965729500,0.2057294921875,-1.7372855653882027,1.6189187136828898,-2.996247516095638
1741199023975700500,0.215700439453125,-1.3397691793471573,1.5658388654023407,-3.0570608812376854
1741199023985671400,0.22567138671875,-0.7935551007449626,1.4826754290252924,-2.9938311026036737
1741199023995642400,0.235642333984375,-0.23277649021744726,1.4787006801754234,-2.911589457246661
1741199024005613600,0.245613525390625,0.23987492404580116,1.3269599666565657,-2.879168366113305
1741199024015584500,0.25558447265625,0.5269172574579716,1.1592220580607653,-2.742177477958798
1741199024025555500,0.265555419921875,0.6933452524989843,1.0160276390910148,-2.311813738196343
1741199024035526400,0.2755263671875,1.0107447302520274,0.9833557880669832,-1.8463672868758438
1741199024045497300,0.285497314453125,1.295099432015419,0.9628870005339384,-1.4907371549278496
1741199024055468500,0.295468505859375,1.5094208126097917,0.9414888231962919,-1.277946198771149
1741199024065439500,0.305439453125,1.576570102775097,0.9188046977013349,-0.8939956890068947
1741199024075410400,0.315410400390625,1.6071049417704344,0.9594681320011615,-0.5728622123572975
1741199024085380600,0.325380615234375,1.8975509461462496,1.1064783098667859,-0.39736846547033633
1741199024095351600,0.3353515625,2.262200250852108,1.2239017432421444,-0.1284612890118733
1741199024105322200,0.345322265625,2.7994793278485535,1.3092740878403186,0.1456234727475792
1741199024115293400,0.35529345703125,2.8173966773331163,1.2985802598685026,0.6369363328609615
1741199024125264400,0.365264404296875,3.19503522747159,1.3880834206610917,0.687032708351314
1741199024135235600,0.375235595703125,3.885110079997778,1.5957470969319343,0.5419765506302937
1741199024145206500,0.38520654296875,3.9270881040275096,1.586963486495614,0.6874625511359423
1741199024155177500,0.395177490234375,3.558227903628349,1.3327245215326546,0.8564875769328325
1741199024165148400,0.4051484375,2.6339959201812744,0.9672931265383958,1.0158759556606412
1741199024175119400,0.415119384765625,1.7612509628653525,0.7735106761038303,0.8756498119119555
1741199024185090600,0.425090576171875,1.0676549504756927,0.8378525076329708,0.6215867149725556
1741199024195061500,0.4350615234375,0.5035071557760238,0.8855284510433673,0.37893165868893264
1741199024205032700,0.44503271484375,0.20777707351744173,0.8504758423626423,0.3493788895335048
1741199024215003400,0.45500341796875,0.350488677406311,0.7465630479454993,0.3179255839863792
1741199024224974300,0.464974365234375,0.7146686110347509,0.5928074874728918,0.4137896215803921
1741199024234945500,0.474945556640625,1.1459867289125918,0.2983136690109968,0.8586565184697509
1741199024244916500,0.48491650390625,1.2067033556818962,-0.08568798641860484,1.2930379694409668
1741199024254887700,0.4948876953125,0.7280863110125064,-0.3059738283753395,1.55854812387228
1741199024264858400,0.5048583984375,-0.12627426382899284,-0.22636194700002668,1.3506909708559511
1741199024274829300,0.514829345703125,-1.261922554078698,-0.21985855645537375,1.0478721724454312
1741199024284800500,0.524800537109375,-1.902393710002303,-0.34897593475580213,1.1836644253998994
1741199024294771500,0.534771484375,-1.9500643927156924,-0.5387585018992423,1.4127650035835801
1741199024304742700,0.54474267578125,-1.6614830131679772,-0.8007862210422754,1.5989669357612728
1741199024314713600,0.554713623046875,-1.2717302468657492,-1.0915817695081234,1.6082304386690258
1741199024324684300,0.564684326171875,-0.9402619117498398,-1.4177426458656788,1.5674933546110987
1741199024334655500,0.574655517578125,-0.8823726173609495,-1.6371388455063103,1.3900612966053187
1741199024344626000,0.5846259765625,-1.3274275841683147,-1.7649211758106946,1.2527908608570695
1741199024354595800,0.594595947265625,-2.266024777576327,-1.8934739059656858,1.397512343263626
1741199024364566800,0.60456689453125,-2.7781138837367294,-1.7913211069583892,1.6101739739522336
1741199024374538000,0.6145380859375,-2.8106133008033036,-1.7023814252674578,1.8487020134337244
1741199024384509000,0.624509033203125,-2.7376912724554536,-1.6652029104739428,2.1547855857938525
1741199024394479900,0.63447998046875,-2.9671003320664164,-1.6857850952535867,2.2239827483996746
1741199024404450800,0.644450927734375,-3.232710001349449,-1.6208926441043614,1.9795361325241625
1741199024414421800,0.654421875,-3.387461002600193,-1.3416098387777804,1.2878234496630727
1741199024424393000,0.66439306640625,-3.5955326751500367,-1.093320722129941,0.7746285742178559
1741199024434364000,0.674364013671875,-3.8906817426502704,-0.891045753160119,0.5534507883900777
1741199024444335000,0.684335205078125,-4.031835595703125,-0.46637657177746294,0.4457342908410355
1741199024454305800,0.694305908203125,-3.486369120597839,0.18406945019364357,0.36369364794883874
1741199024464276700,0.70427685546875,-2.7357395538657903,0.7998223444461822,0.3926959070820361
1741199024474248000,0.714248046875,-1.959250154212117,1.4054296922594307,0.5400974223528057
1741199024484219000,0.724218994140625,-1.1782587669640778,1.9086872571885585,0.7529080330580472
1741199024494190000,0.734190185546875,-0.564669772747159,2.1715578568965195,1.017738753857836
1741199024504160800,0.744160888671875,-0.20280162319242953,2.305543133494258,1.297432258877158
1741199024514131700,0.754131591796875,-0.05665244607031345,2.349213348394632,1.5773384567990898
1741199024524103000,0.76410302734375,-0.2935989154487848,2.357570842373371,1.6099188301473855
1741199024534073900,0.774073974609375,-0.6465776561051607,2.4032144031733274,1.3716717995643615
1741199024544045000,0.784045166015625,-0.7141600769907236,2.418497312501073,1.0161495119050143
1741199024554016000,0.79401611328125,-0.5720639746516942,2.333702475529909,0.7332499773859977
1741199024563986700,0.803986572265625,-0.36852176222503186,2.1177543705165385,0.40510285911466926
1741199024573958000,0.8139580078125,-0.08080839768350125,1.8638339699834585,0.07370795456115156
1741199024583928800,0.8239287109375,0.3119382897377014,1.6395429840385913,-0.15629954586699604
1741199024593900000,0.833900146484375,0.6495230619072914,1.4338567453205584,-0.25292653065752235
1741199024603871000,0.84387109375,0.9823632698982954,1.3159247779011725,-0.2738735666941851
1741199024613841000,0.8538408203125,1.2943915760070084,1.2562106061726808,-0.33276294150371105
1741199024623811800,0.863811767578125,1.466784616932273,1.179487431976199,-0.20317016424387693
1741199024633782800,0.87378271484375,1.3995774590998886,1.1248252829402685,-0.09801639332231134
1741199024643754000,0.88375390625,0.9704413614362478,1.0337667093992233,0.18182382669132202
1741199024653725000,0.893724853515625,0.7167746434032917,1.1352543224960565,0.2864462306825444
1741199024663696000,0.90369580078125,0.6732090579211711,1.3564192853748798,0.020101780851557848
1741199024673667000,0.9136669921875,0.6014870530128479,1.4392834465444087,-0.15223828777745366
1741199024683637800,0.9236376953125,0.6898620865583419,1.38859020113945,-0.1657801621241495
1741199024693609000,0.93360888671875,0.8878238685041665,1.358289755421877,-0.1834628260700032
1741199024703580000,0.943579833984375,1.0217015930742024,1.2502099044531583,-0.16735891921557486
1741199024713550800,0.95355078125,1.2147820327192544,1.1104314314067363,0.046908868028037246
1741199024723522000,0.96352197265625,1.453266379189491,0.9961328520536422,0.19220910017061976
1741199024733492700,0.97349267578125,1.5504378826528786,0.9519085104018449,0.24102380181998012
1741199024743464000,0.9834638671875,1.5534849952638148,0.8982382950127125,0.29803766508121043
1741199024753435000,0.993434814453125,1.5359867479741574,0.8389601766139269,0.3703573801543563
1741199024763405800,1.00340576171875,1.5251187324792146,0.791288324856758,0.42457514642365274
1741199024773377000,1.013376953125,1.6422949130952358,0.7964373781830072,0.3186760004948824
1741199024783348000,1.023347900390625,1.6051128911703825,0.7349287242531776,0.2500080311286263
1741199024793319000,1.03331884765625,1.3414169465541839,0.5006120188564062,0.45236799323447047
1741199024803289900,1.043289794921875,1.0506763431459665,0.21941782695055007,0.6820993436023592
1741199024813260800,1.0532607421875,0.5774193642050027,-0.014262918630242347,0.7408297649905086
1741199024823232000,1.06323193359375,0.2416144611895084,-0.07118249120414256,0.44391193425208325
1741199024833203000,1.073202880859375,-0.045485155367851256,-0.15059855774641037,0.22399711756482718
1741199024843174000,1.083173828125,-0.2459861004024744,-0.39032442871034145,0.3658789195660502
1741199024853143800,1.093143798828125,-0.22404840936064718,-0.6632482203990221,0.5821725500814616
1741199024863114800,1.10311474609375,-0.05657061300575733,-0.8032488117635249,0.52860104582645
1741199024873086000,1.1130859375,0.06855448078811169,-1.1020558172494173,0.5422615415841341
1741199024883057000,1.123056884765625,0.25207506492733955,-1.3582196127951145,0.7094650510422885
1741199024893027800,1.13302783203125,0.48518473262190814,-1.6164999621033667,0.797933096633479
1741199024902999000,1.1429990234375,0.620731851708889,-1.7705647346556186,0.7666133178055285
1741199024912969700,1.1529697265625,0.6696119102120399,-1.789057253679633,0.5548372377797961
1741199024922941000,1.16294091796875,0.36931378938555715,-1.8225556186556815,0.30119760868316514
1741199024932911900,1.172911865234375,-0.19498539648354052,-2.017922707933187,0.4263798577580601
1741199024942882800,1.1828828125,-0.5554664755940437,-2.1989047135055064,0.6071254972912371
1741199024952854000,1.19285400390625,-0.6022288112908601,-2.3807570721715687,0.7527846989393234
1741199024962824700,1.20282470703125,-0.5738607949405908,-2.4763953747183085,1.0033676256127655
1741199024972796000,1.2127958984375,-0.9195698368549347,-2.4260867447167636,1.0625321275692432
1741199024982766800,1.222766845703125,-1.529723011404276,-2.168322528237104,0.5702606150241568
1741199024992737800,1.23273779296875,-1.963729929974675,-1.8939386008679866,0.11118225569715723
1741199025002709000,1.242708984375,-1.8947791433453558,-1.4928747514784335,-0.30713242382593453
1741199025012680000,1.252679931640625,-1.5581740298628806,-0.9755191030919551,-0.8215272496454418
1741199025022651000,1.26265087890625,-1.4740946476846932,-0.41728082469701766,-1.3481073841035365
1741199025032621800,1.272621826171875,-1.7395330520540475,0.1045470006674528,-1.7389546676442027
1741199025042593000,1.282593017578125,-2.0666402693510055,0.45497839492857456,-2.0065733386620876
1741199025052564000,1.29256396484375,-2.01896198785305,0.7236328387349844,-2.2047410184435545
1741199025062535000,1.302534912109375,-1.4695944136559962,0.9060334789335727,-2.40623053612411
1741199025072505900,1.312505859375,-0.7907137398391961,1.023013260194659,-2.636270294854045
1741199025082475800,1.322475830078125,-0.20071078839302062,1.0309832161605357,-2.7049288205385205
1741199025092446700,1.33244677734375,0.34538872391879555,1.0170388619601727,-2.6841461447507142
1741199025102418000,1.34241796875,0.9278887523889541,1.0688847845315932,-2.5847180945321915
1741199025112388900,1.352388916015625,1.6764344985842703,1.1816460713148116,-2.5847113725304602
1741199025122360000,1.362360107421875,2.2660879059404135,1.3250655312120914,-2.7516861877992747
1741199025132331000,1.3723310546875,2.342711711415648,1.4870207647532223,-2.9635502383694052
1741199025142301700,1.3823017578125,2.1123960583537817,1.6144781008869409,-3.153601685582101
1741199025152273000,1.39227294921875,1.5741425833672285,1.6607500227183103,-3.1292239079117774
1741199025162243800,1.402243896484375,1.170212823152542,1.6731746200054882,-2.9138004112944005
1741199025172215000,1.412215087890625,1.0535714800655842,1.654933445394039,-2.6699659359678622
1741199025182186000,1.42218603515625,1.0799883623480797,1.649998911601305,-2.4223178937025365
1741199025192156700,1.43215673828125,1.2688099755048752,1.6657137826055288,-2.287222463905811
1741199025202128000,1.4421279296875,1.4991367344826458,1.6369968066871166,-2.1661149351902305
1741199025212098800,1.452098876953125,1.6261930886000393,1.5286293709486722,-1.9974241097837686
1741199025222070000,1.462070068359375,1.779635345339775,1.3690285915791987,-1.7783396064408123
1741199025232041000,1.472041015625,1.9543238037258386,1.2083861942023038,-1.531824659858644
1741199025242012000,1.482011962890625,2.13638249861896,1.0862433310896158,-1.3199055181004107
1741199025251982800,1.49198291015625,2.2581091821461916,0.9426356551438569,-1.0559981226906179
1741199025261953800,1.501953857421875,2.2718694119513034,0.7682622540563344,-0.8144151526179164
1741199025271925000,1.511925048828125,2.235422134041786,0.6342512584954499,-0.6749157887738197
1741199025281896000,1.52189599609375,2.2300702516198156,0.5636310773491859,-0.5772533965209499
1741199025291865900,1.531865966796875,2.3169150068581104,0.4773667523473501,-0.5624823457054794
1741199025301837000,1.541837158203125,2.3645266528606412,0.42750820420086383,-0.5391881620207801
1741199025311807700,1.551807861328125,2.2898773623287676,0.22685411443114278,-0.39622258337084204
1741199025321778700,1.56177880859375,2.287438737004995,-0.03342997591495514,-0.15468436575531957
1741199025331750000,1.57175,2.3712463165044784,-0.3355716787815094,0.15510262770000843
1741199025341721000,1.58172119140625,2.4806466024219986,-0.5495914460808038,0.35225360471960154
1741199025351692000,1.591692138671875,2.5477953080654143,-0.7195294950693846,0.6531836302414536
1741199025361663000,1.6016630859375,2.6422815179675814,-0.6884083806186914,0.8077566445767879
1741199025371634000,1.611634033203125,2.545131057292223,-0.6063765786200761,0.794127420740202
1741199025381604900,1.62160498046875,2.029343096613884,-0.6160562611132859,0.8010986479923129
1741199025391576000,1.631576171875,1.409476337301731,-0.6666402009248733,0.8645110897168516
1741199025401547000,1.641547119140625,0.9722282448530196,-0.7485340557575225,0.879931873145327
1741199025411518200,1.651518310546875,0.5839636712819337,-0.8784884694039821,0.7814111470300704
1741199025421489000,1.661489013671875,0.226322199511528,-1.0799252339839935,0.7180414484687149
1741199025431459800,1.6714599609375,-0.11641221050620078,-1.3099474570572376,0.7202771716315299
1741199025441431000,1.68143115234375,-0.2545996149688959,-1.570687474477291,0.797117980858311
1741199025451402000,1.691402099609375,-0.1316091951161623,-1.7522417269796131,0.9036628042794763
1741199025461373200,1.701373291015625,0.023229484418034553,-1.859136752077937,0.9628932841442525
1741199025471343900,1.71134375,0.04690145190656185,-1.9267279407918452,0.9484965100012719
1741199025481314800,1.721314697265625,-0.056737201744318004,-1.9814631550639867,0.8577843387451022
1741199025491285000,1.731284912109375,-0.38388416652977464,-1.9828519790738819,0.6580731558486819
1741199025501256000,1.741255859375,-0.9013216479808092,-1.9382973825544119,0.45822296634037046
1741199025511227000,1.751226806640625,-1.4890250903129576,-1.863873717471957,0.32441629771254954
1741199025521198000,1.761197998046875,-2.078373961764574,-1.7557605487555263,0.2833452141935937
1741199025531169000,1.7711689453125,-2.607789465779066,-1.7683102337270975,0.42489531828872856
1741199025541140000,1.781139892578125,-2.8781460373282433,-1.9375562087982892,0.8516277888767421
1741199025551111000,1.79111083984375,-2.384419686332345,-2.222176283499598,1.317178431224078
1741199025561082000,1.80108203125,-1.6143530132025479,-2.401583002579212,1.4255625258363782
1741199025571053000,1.811052978515625,-1.1450894878119229,-2.5572405972808596,1.1677894684631376
1741199025581024000,1.82102392578125,-0.9229477888554334,-2.7864503349274394,0.8759447762705386
1741199025590995200,1.8309951171875,-1.4628607214868068,-3.0884786405473945,0.36021888451036066
1741199025600966000,1.8409658203125,-2.491767715895176,-3.2504636847048998,-0.2752208896499127
1741199025610937000,1.85093701171875,-3.4294232445389032,-3.1762761664658785,-0.9246163796547799
1741199025620908000,1.860907958984375,-4.022881304875016,-2.6907325374037026,-1.472082723340392
1741199025630879000,1.87087890625,-3.92876568185091,-1.9474907428354025,-1.7683618177838623
1741199025640850200,1.88085009765625,-3.26989669944942,-1.1371154401928185,-1.6986824246190488
1741199025650820900,1.89082080078125,-2.8341426449507474,-0.39469080722630023,-1.3056708026513457
1741199025660792000,1.9007919921875,-2.6778070048570632,0.22489538157880304,-0.9184083187948912
1741199025670762000,1.910761962890625,-2.5722166326165197,0.8570850313693285,-0.7096287902366369
1741199025680733000,1.92073291015625,-2.638297416767478,1.4039648804038762,-0.5550473733991385
1741199025690704100,1.9307041015625,-2.8402655117452142,1.8964988067448139,-0.44549237184394147
1741199025700675000,1.940675048828125,-3.195772894096374,2.3022014218509197,-0.32400055651850995
1741199025710646000,1.95064599609375,-3.461531031939387,2.5795652418136594,-0.13155858830693176
1741199025720617000,1.960616943359375,-3.19986513184607,2.767961323034763,0.06288022541082464
1741199025730588000,1.970587890625,-2.5310639534950257,2.8660376663833853,0.2010005833861418
1741199025740559000,1.98055908203125,-1.6789590486258268,2.869934673821926,0.3764869689505547
1741199025750530000,1.990530029296875,-0.7523521527409553,2.7804969794809815,0.5114406156564131
1741199025760501000,2.0005009765625,0.060714873203635215,2.6330513328075407,0.6254156256109475
1741199025770472000,2.010471923828125,0.6656178721398115,2.4817408273994923,0.7462110196374356
1741199025780443000,2.02044287109375,1.1263216589778662,2.3102532108813523,0.8531606975324452
1741199025790414000,2.0304140625,1.4901707532167434,2.224404480943084,0.9114081577092409
1741199025800385000,2.040385009765625,1.804659896481037,2.163429495498538,0.9596624124642461
1741199025810356000,2.05035595703125,2.087803468888998,2.1144144124388693,0.9503000522918998
1741199025820327200,2.0603271484375,2.288469249096513,2.138193347433209,0.9547456335239112
1741199025830297900,2.0702978515625,2.4370289944916963,2.1764234171062706,1.008391006732732
1741199025840269000,2.08026904296875,2.4978759696424007,2.12196701977551,1.06028171829395
1741199025850240000,2.090239990234375,2.5893805333852766,2.005429721584916,1.1620867998421192
1741199025860210000,2.1002099609375,2.6972148851603266,1.8375006743311881,1.284464933015406
1741199025870181000,2.11018115234375,2.872728688454628,1.6155699877768754,1.4094248993754386
1741199025880152000,2.120152099609375,3.1268998488783835,1.3805039253175257,1.499465674176067
1741199025890123000,2.130123046875,3.3024078069537874,1.1163456238865852,1.4968158903196453
1741199025900094000,2.140093994140625,3.375620342680812,0.8551122699916363,1.3100773670472203
1741199025910065000,2.15006494140625,3.3466806639224287,0.6168079562634229,1.0444023043777793
1741199025920036000,2.1600361328125,3.1781413758158683,0.46081718408465383,0.7733000290278345
1741199025930007000,2.170007080078125,2.955582912752032,0.24714111565649508,0.7456612768001853
1741199025939978200,2.179978271484375,2.7995518085628746,0.008510054191946982,0.8291746225934475
1741199025949949000,2.189948974609375,2.6780413981348277,-0.19437398658692837,0.8064686505928635
1741199025959919900,2.199919921875,2.38297357917726,-0.38109833520352837,0.5827711004965007
1741199025969891000,2.20989111328125,1.9246540571272372,-0.6529413459181785,0.34591168834697456
1741199025979862000,2.219862060546875,1.4642109670519827,-0.920227423980832,0.1619710704310797
1741199025989833200,2.229833251953125,0.9061147274762391,-1.1768103217214345,-0.02082472483124584
1741199025999804000,2.239803955078125,0.27897359324693677,-1.348553958827257,-0.2955815406333655
1741199026009774800,2.24977490234375,-0.35023499490618704,-1.4878981321096418,-0.4698406311588362
1741199026019746000,2.25974609375,-0.9538894550859928,-1.5801649123966692,-0.5504122974770144
1741199026029716000,2.269716064453125,-1.3175965105056762,-1.618217287415266,-0.5807904846059158
1741199026039687000,2.27968701171875,-1.2452759551823138,-1.6162170535087585,-0.4873764705125242
1741199026049658000,2.289658203125,-0.9130582630038261,-1.5918074193954468,-0.28375005040112883
1741199026059629000,2.299629150390625,-0.5583440768569707,-1.6550953579574823,-0.051477810778236016
1741199026069600000,2.30960009765625,-0.13192132980525492,-1.7571745072066782,0.2979536035269499
1741199026079571000,2.319571044921875,0.00791325734257698,-1.8322201035797594,0.509048204094544
1741199026089542000,2.3295419921875,-0.33807343246936794,-1.905985597014427,0.46456689200699325
1741199026099513000,2.33951318359375,-1.106868185967207,-1.8985680142343042,0.32809323265962304
1741199026109484000,2.349484130859375,-1.848345893472433,-1.7945283785670996,0.12559054674799552
1741199026119455000,2.359455078125,-2.5237813952714205,-1.733269315484166,-0.16735773190548642
1741199026129426000,2.369426025390625,-2.896960043391585,-1.7592513134807348,-0.30347735365079714
1741199026139396900,2.37939697265625,-2.90124049718976,-1.8704548494279383,-0.05754492879747413
1741199026149368000,2.3893681640625,-2.528944477123022,-1.964188779658079,0.15785320504978298
1741199026159339000,2.399339111328125,-1.957754947218299,-1.9859043523818254,0.20562254409836603
1741199026169310200,2.409310302734375,-1.6213871496230363,-1.8350772465765475,0.01961039887173101
1741199026179281000,2.419281005859375,-1.9617431400716303,-1.6126029546648264,-0.4215308468243107
1741199026189251800,2.429251953125,-2.717496625688672,-1.1777204223036766,-1.146365572162345
1741199026199222000,2.439221923828125,-3.3830285731106993,-0.6477718343257903,-1.8876796866036951
1741199026209193000,2.44919287109375,-3.808389243888855,-0.1741302399814129,-2.412340981828421
1741199026219164000,2.459163818359375,-3.9976147616714237,0.25790099460184573,-2.8053602025806903
1741199026229135000,2.469135009765625,-3.8166315870553253,0.6169453189074993,-3.0308050347357987
1741199026239106000,2.47910595703125,-3.3202386471986767,0.878104438522458,-3.0499367284461854
1741199026249077000,2.489076904296875,-2.7956396035552022,0.9997212319344282,-2.8219275987610217
1741199026259048000,2.4990478515625,-1.9514520476818085,1.0968377903401851,-2.558758016106486
1741199026269019100,2.50901904296875,-0.989063059797883,1.237809857085347,-2.3589741333000362
1741199026278990000,2.518989990234375,-0.11317805089056492,1.3972387870192526,-2.1351810138747096
1741199026288961000,2.5289609375,0.5550169782608747,1.5321949544757603,-1.917952367531508
1741199026298932000,2.538931884765625,0.9581295768737792,1.6949392925679683,-1.8253268369346856
1741199026308903000,2.54890283203125,1.0946060857653617,1.8797779735684395,-1.8170391933217644
1741199026318874000,2.5588740234375,0.9244061709702014,2.018454622852802,-1.8044776717819273
1741199026328845000,2.568844970703125,0.6118120476722717,2.076762434914708,-1.702736083924025
1741199026338816000,2.57881591796875,0.47698973572850223,2.063036691901088,-1.5160495830997824
1741199026348786000,2.588785888671875,0.451029365041852,1.9256676180839538,-1.3321747786954043
1741199026358756900,2.5987568359375,0.5815343983083963,1.719108688184619,-1.1687333982497452
1741199026368727800,2.608727783203125,0.8308698091387748,1.498079334384203,-1.04743429248482
1741199026378698800,2.61869873046875,1.0939262868076562,1.3655728981673716,-0.8800527230460197
1741199026388669700,2.628669677734375,1.3341045777142047,1.3289514327347278,-0.6480727169685065
1741199026398641000,2.638640869140625,1.5716566117703914,1.3634265337884426,-0.47070689259935167
1741199026408611800,2.64861181640625,1.7534511027693747,1.4390472997009753,-0.2895751763580367
1741199026418582800,2.658582763671875,1.920364835500717,1.4612667302936315,-0.11621840496715158
1741199026428553700,2.6685537109375,2.1145921070933342,1.4855541993319987,-0.0301258563356474
1741199026438524700,2.678524658203125,2.2379987065315246,1.3402695300847292,0.10670304619017988
1741199026448495900,2.688495849609375,2.2863491882026192,1.1205588576674461,0.296734400462918
1741199026458466800,2.698466796875,2.3100778543144465,0.9531903669059276,0.3892319938311353
1741199026468437800,2.708437744140625,2.385294715601206,0.8265712351620197,0.443939552911371
1741199026478408700,2.71840869140625,2.5482933207154272,0.7302998954087495,0.5227536715051159
1741199026488379600,2.728379638671875,2.7503175297945734,0.614924042212963,0.6485024866878986
1741199026498350800,2.738350830078125,2.8484558324635025,0.47133039479255673,0.7421277689117938
1741199026508320800,2.74832080078125,2.8052392065495253,0.33205694865882396,0.8347146479986608
1741199026518291700,2.758291748046875,2.6936732670307157,0.22602526239156723,0.9159511349011212
1741199026528263000,2.768262939453125,2.5302654965937137,0.16428922944664953,0.9472544740509241
1741199026538233900,2.77823388671875,2.2818226506888863,0.09001111031472682,0.9267591638371347
1741199026548204500,2.78820458984375,2.019220931050181,-0.030710780084133145,0.7706361435808241
1741199026558175700,2.79817578125,1.8080033616900444,-0.13693594309687612,0.5929660755680873
1741199026568146700,2.808146728515625,1.6616554471254348,-0.31768706252276896,0.5952612007679418
1741199026578118000,2.818117919921875,1.523918709039688,-0.4382371034860611,0.6613328152317554
1741199026588088800,2.8280888671875,1.1767045232594013,-0.5318547138601541,0.7184014408875257
1741199026598059800,2.838059814453125,0.7264478961557149,-0.6724532711178064,0.8190443467885256
1741199026608030700,2.84803076171875,0.32307927695512767,-0.8360048339396715,0.8634306740690022
1741199026618001700,2.858001708984375,0.12760171304047108,-1.0714975973784924,0.9445666232064366
1741199026627972900,2.867972900390625,0.0889578018695116,-1.2789046685397625,1.1624701000712812
1741199026637943800,2.87794384765625,-0.14215397000610827,-1.6649661791086197,1.2498324494428932
1741199026647914800,2.887914794921875,-0.12080664607286452,-1.9781085839390753,1.34887939138934
1741199026657885000,2.897885009765625,0.3444108187973499,-2.2513351579666137,1.3829232614189386
1741199026667855600,2.907855712890625,1.105853455966711,-2.3273346940636634,1.1024371447172014
1741199026677826600,2.91782666015625,1.418006849759817,-2.302754379558563,0.5943055440109223
1741199026687797800,2.9277978515625,0.6764964090287685,-2.442659693855047,0.38234190552383657
1741199026697768700,2.937768798828125,-0.7639116576313972,-2.6114386359363793,0.5059866976320744
1741199026707740000,2.947739990234375,-2.0264637417852875,-2.6470541391968725,0.525517985119298
1741199026717710800,2.9577109375,-2.477313658607006,-2.573887780699134,0.6652987231880426
1741199026727681800,2.967681884765625,-2.4129268188923594,-2.327535185071826,0.7741567189224063
1741199026737652700,2.97765283203125,-2.2945254803955555,-2.040663532051444,0.6914565892081708
1741199026747623700,2.987623779296875,-2.2897370770752428,-1.9248416886538267,0.6180807526782155
1741199026757595000,2.997594970703125,-2.2529268110722303,-1.9408213480740784,0.4656283106934279
1741199026767565800,3.00756591796875,-2.2234055330336093,-1.9377210439711807,0.33872462638709694
1741199026777536800,3.017536865234375,-2.1460189264923333,-1.7209458404839038,0.3152291114440188
1741199026787507700,3.0275078125,-1.9856611912757156,-1.3272364455103873,0.29957028147596865
1741199026797477600,3.0374775390625,-1.8294459626913069,-0.7054249818712472,0.26297281797342
1741199026807448800,3.04744873046875,-1.8586504298657178,0.002515197691321373,0.216468475625664
1741199026817419800,3.057419677734375,-2.0585621768355367,0.6315285555332899,0.14213126498395576
1741199026827390700,3.067390625,-2.2434020268797874,1.2629010437220334,0.1352346190717071
1741199026837362000,3.07736181640625,-2.317583115378022,1.8405191453695295,0.20674815059481189
1741199026847332600,3.08733251953125,-2.308670910125971,2.2425667450994253,0.3680069080380723
1741199026857303800,3.0973037109375,-2.1650001058161257,2.493843353125453,0.5542593648266047
1741199026867274800,3.107274658203125,-1.8083669343054294,2.6196628589242694,0.685171955980733
1741199026877245700,3.11724560546875,-1.2918424760460854,2.5696792230933903,0.7823932899352163
1741199026887217000,3.127216796875,-0.7451707168042659,2.4811580590754745,0.7899974082633853
1741199026897187600,3.1371875,-0.35870997778475283,2.3100720090955496,0.6290280439544469
1741199026907158800,3.14715869140625,-0.1180500408411026,2.154221522170305,0.45697596195396034
1741199026917129700,3.157129638671875,0.07817045039534569,2.020780435451865,0.31714762188382445
1741199026927100700,3.1671005859375,0.2645078455209732,1.8791846838504076,0.1448143939875532
1741199026937070800,3.17707080078125,0.3930974005550146,1.7457728232264518,0.04329661408131942
1741199026947041800,3.187041748046875,0.6115408295154571,1.6525433353871106,-0.01876220281086862
1741199026957012700,3.1970126953125,0.9588046996563673,1.5669903735250235,-0.016798538055084643
1741199026966983700,3.206983642578125,1.43336925406456,1.4994763417005539,0.03876823167037219
1741199026976954600,3.21695458984375,1.9772154344916342,1.4565291803777216,0.1393704585011117
1741199026986925800,3.22692578125,2.44867793123126,1.3459417305022476,0.29180923728672786
1741199026996896800,3.236896728515625,2.8074089518040415,1.2177104873865843,0.39124735224153845
1741199027006867700,3.24686767578125,3.0433681637108325,1.0467582929193973,0.4895075642570853
1741199027016839000,3.2568388671875,3.1120167525231834,0.7952063750833273,0.5710379195395857
1741199027026809600,3.2668095703125,2.990160305136442,0.5566238289356231,0.5451798036510125
1741199027036780800,3.27678076171875,2.8443343686193225,0.30591128453314304,0.43062326748147606
1741199027046751700,3.286751708984375,2.817507736492157,0.048912791728973386,0.43675227175578474
1741199027056721700,3.2967216796875,2.8994512756854296,-0.19403964006602764,0.5047619416100904
1741199027066692900,3.30669287109375,3.0450387272715567,-0.5007599028944969,0.6130062258929014
1741199027076663800,3.316663818359375,3.1909751384258267,-0.8274532786935568,0.7830380906447768
1741199027086634800,3.326634765625,3.181203685995936,-1.1856482926934957,0.9645848174277692
1741199027096605700,3.336605712890625,3.058691989570856,-1.47167648062706,1.0136961274035274
1741199027106576600,3.34657666015625,2.8047908782601354,-1.6125322275161742,0.8203001920685171
1741199027116547800,3.3565478515625,2.4114906486093997,-1.6669804415404796,0.5936394447850063
1741199027126518800,3.366518798828125,1.8532085310727358,-1.6328192287415264,0.42568033118657767
1741199027136490000,3.376489990234375,1.1823562654107809,-1.5761077459603547,0.2670176181185059
1741199027146460700,3.386460693359375,0.46038989858329293,-1.5557178688824176,0.1630852970169857
1741199027156431600,3.396431640625,-0.3511351586163044,-1.5690210025697946,0.013932499365787953
1741199027166402800,3.40640283203125,-1.2517290768444538,-1.587275036662817,-0.18771103983270004
1741199027176372700,3.416372802734375,-2.13060216165185,-1.553645154261589,-0.4238653176538646
1741199027186343700,3.42634375,-2.7395021212697026,-1.50394091989398,-0.5420199148479848
1741199027196315000,3.43631494140625,-2.960318709102273,-1.4868115059167146,-0.5890332661638036
1741199027206285800,3.446285888671875,-2.9950159284740683,-1.4390548984855414,-0.6267424172352999
1741199027216256800,3.4562568359375,-2.920565959906578,-1.3953817609757184,-0.6360453753706068
1741199027226227700,3.466227783203125,-2.6916706950366494,-1.3488567411661148,-0.6020845074493437
1741199027236198700,3.47619873046875,-2.543653970476985,-1.3278385030567645,-0.5549082937220111
1741199027246169900,3.486169921875,-2.55088041459918,-1.3335025201678274,-0.41170302456468344
1741199027256140800,3.496140869140625,-2.6468162387877703,-1.3697346940219401,-0.21145594469327478
1741199027266111700,3.50611181640625,-2.8458564636200663,-1.4365233341813086,-0.05497673141043633
1741199027276082700,3.516082763671875,-2.9662422539323567,-1.5742957281023262,0.004776986877154559
1741199027286053600,3.5260537109375,-2.6265631398320197,-1.8155875332087277,-0.18478428393211216
1741199027296023800,3.53602392578125,-1.6343898390591143,-1.9725562105089425,-0.5706207170408218
1741199027305994800,3.545994873046875,-0.6700561468482017,-2.1048130558788776,-1.0112184121783823
1741199027315965700,3.555965576171875,-0.3619108196526766,-2.382027238237858,-1.2685437257841228
1741199027325937000,3.56593701171875,-0.29085575422048565,-2.675106513726711,-1.433893277938664
1741199027335907600,3.575907470703125,0.18592647623717784,-2.5929952167510986,-1.8061434130370615
1741199027345879600,3.585879638671875,0.7453957577317952,-2.1348972284972665,-2.081645969172567
1741199027355850800,3.595850830078125,0.7905214321374893,-1.5445032319068908,-2.1083258863054213
1741199027365821700,3.60582177734375,0.23776596906781194,-0.8010814045965671,-2.0340198562532663
1741199027375792400,3.61579248046875,-0.5201040703117847,0.1861941872626543,-2.2370833452522754
1741199027385763600,3.625763671875,-1.150770456057787,1.1963047112643719,-2.654010241945088
1741199027395734500,3.635734619140625,-1.8170190273165703,2.053826380485296,-2.9782246604099867
1741199027405704400,3.645704345703125,-2.3774036700904366,2.657739199340343,-3.062650956329703
1741199027415675600,3.655675537109375,-2.9835902790963647,2.8815935474336145,-2.8611782436534763
1741199027425646600,3.665646484375,-2.967686607521772,3.0645149966359138,-2.649206641055643
1741199027435617800,3.67561767578125,-2.299572826912999,3.1854829707503316,-2.2771328854374584
1741199027445588500,3.68558837890625,-1.6519026993960142,3.160416334033012,-1.839130905881524
1741199027455559400,3.695559326171875,-1.0122118801951407,3.024447190141678,-1.6088586535699665
1741199027465530600,3.705530517578125,-0.24606734894514082,2.907576129952073,-1.407197578714788
1741199027475501600,3.71550146484375,0.5441068771898746,2.850254406318068,-1.1988095336921512
1741199027485472800,3.72547265625,0.8631301567524671,2.5851065093278884,-0.9825231366351246
1741199027495443500,3.735443359375,1.3848404932171106,1.9593302337110041,-0.6636508829157799
1741199027505414400,3.745414306640625,2.152106721973419,1.496204772683978,-0.23977206645952537
1741199027515384600,3.755384521484375,2.7083412593305107,1.0970084707319736,0.0801793607986532
1741199027525355500,3.76535546875,3.1485195600122213,0.8862667021900414,0.21900376625694334
1741199027535326500,3.775326416015625,3.3252100058704612,0.7388175483852625,0.2842274403882213
1741199027545297700,3.785297607421875,3.10279182806015,0.627169775801897,0.22695222277706487
1741199027555268600,3.7952685546875,2.7477403727829453,0.6068681615293026,0.1666918518752791
1741199027565239600,3.805239501953125,2.467397244748473,0.6837041484504938,0.14706452013505622
1741199027575210500,3.81521044921875,2.302802894875407,0.7598316948413848,0.22771776378946376
1741199027585181700,3.825181640625,2.2813562022209166,0.7856810063689946,0.5068021787334234
1741199027595152600,3.835152587890625,2.239814231520891,0.7815496056526899,0.8710060046941042
1741199027605123600,3.84512353515625,2.1877549584597347,0.7841542351931333,1.1544110045172273
1741199027615094800,3.8550947265625,2.1649112584888934,0.6992302188843488,1.4630238030940292
1741199027625064700,3.865064697265625,2.2181045040160416,0.6092044955223799,1.5055059772536157
1741199027635035400,3.875035400390625,2.491004914829135,0.46708501230776306,1.2693394062064587
1741199027645006600,3.885006591796875,2.388880757394433,0.2753875514537096,1.236198622496426
1741199027654977500,3.8949775390625,2.0816940460979936,0.09619652095139027,1.2686845955595374
1741199027664948700,3.90494873046875,1.740925383195281,-0.10997077928185463,1.1137483008697628
1741199027674919700,3.914919677734375,1.5168044931203126,-0.18013561787605284,0.9105494950532913
1741199027684890600,3.924890625,1.1116302858024836,-0.18574235184192656,0.8617215320635586
1741199027694861600,3.934861572265625,0.7831699003309011,-0.1339262398868799,0.8646461142733692
1741199027704832500,3.94483251953125,0.6200970609366894,-0.127042325592041,0.999346553403139
1741199027714803700,3.9548037109375,0.5785480759739875,-0.21262685163617132,1.1936009321983903
1741199027724773600,3.964773681640625,0.7697399253934621,-0.47396541947126386,1.3022279687210916
1741199027734744600,3.97474462890625,0.684201576578617,-0.9774643919408321,1.4616387784764169
1741199027744715800,3.9847158203125,0.4994049811542034,-1.547027781948447,1.5705312610022724
1741199027754686700,3.994686767578125,0.6970961294651031,-2.0089181482225653,1.5890676191680133
1741199027764657400,4.004657470703125,0.9313269101440906,-2.382709375283122,1.6244700641997158
1741199027774628600,4.014628662109375,1.2914473392486572,-2.832988798740506,1.4605284791469573
1741199027784599600,4.024599609375,2.0761235524892805,-3.406286114579439,1.030614894304797
1741199027794570800,4.03457080078125,2.8283190533638,-4.125879322534799,0.5830074665356427
1741199027804541700,4.044541748046875,3.3210563933223485,-4.354757636269927,-0.022631532224616967
1741199027814512400,4.054512451171875,2.8468583341389895,-3.54602893179059,-0.29059224444609133
1741199027824482600,4.064482666015625,2.025776928564906,-2.0390268707603214,-0.3548055176921189
1741199027834453500,4.07445361328125,-0.26090076093971726,-0.32146482749581334,-0.1560467401497066
1741199027844424400,4.084424560546875,-3.751134740272164,0.9056979633688926,-0.6090645755950361
1741199027854395600,4.094395751953125,-5.516935621526837,1.9419535669744015,-1.3947095608025788
1741199027864366600,4.10436669921875,-5.993613807088137,4.972078218230605,-1.4203116195708512
1741199027874337800,4.114337890625,-6.3304603281110525,5.720988706085086,-0.9373163598172366
1741199027884308500,4.12430859375,-4.062833960556984,2.423334231138229,0.5149013871021568
1741199027894279400,4.134279541015625,-2.5478245341598984,1.704283459496498,2.0914159602977334
1741199027904250600,4.144250732421875,-1.9881196903437375,2.134174759441614,1.754025833917409
1741199027914221600,4.1542216796875,1.730423278403282,0.17025427533090112,2.5517373236894607
1741199027924191700,4.164191650390625,-1.8542641776055095,0.22606121048778294,1.9468240956202147
1741199027934162700,4.17416259765625,-2.372181551527977,0.5617822346121072,1.9554183209642766
1741199027944133600,4.184133544921875,-1.2620564095914364,1.3250155545905231,1.7294367515839635
1741199027954104600,4.1941044921875,-1.735158490231633,1.8017609601691364,1.1882406472742557
1741199027964075500,4.204075439453125,-2.273888350558281,2.300432950873673,1.2446793044634163
1741199027974046700,4.214046630859375,-2.4365280592322347,2.750943260477483,1.1126442851506173
1741199027984017700,4.224017578125,-2.454792030197382,2.8011256337508557,0.4255212681673467
1741199027993988600,4.233988525390625,-2.6944442514032123,2.5550012939214706,0.40392289208248255
1741199028003959600,4.24395947265625,-2.9362609571665526,2.09302208032012,0.6917873555324972
1741199028013930500,4.253930419921875,-2.8093022182047367,1.6701833292350172,0.8108807679466903
1741199028023900400,4.263900390625,-2.3888123683333395,1.1698904593303798,0.8166504373893141
1741199028033871600,4.27387158203125,-1.762180937191844,0.7848714435517787,0.6874252148002385
1741199028043842600,4.283842529296875,-1.2077806295245885,0.5223331445381045,0.5194197413094341
1741199028053813800,4.293813720703125,-0.7116793660908937,0.27659371237307784,0.33985958523377774
1741199028063784700,4.30378466796875,-0.21148411134183406,-0.11110416722595691,0.1762286735653877
1741199028073755400,4.31375537109375,0.7380074010461568,0.07524521059840918,0.36705563519522544
1741199028083726600,4.3237265625,1.2915823638051747,0.0005187631770968437,0.3554746491253376
1741199028093697500,4.333697509765625,1.898171708393097,-0.16726386134326457,0.06716711808294057
1741199028103668700,4.343668701171875,2.4510662876725196,-0.1485527311325073,-0.12820669319629668
1741199028113638700,4.353638671875,2.741174438396096,-0.2648091665551066,-0.30167919992133974
1741199028123609600,4.363609619140625,2.851448584538698,-0.20361206279247998,-0.2420119360744953
1741199028133580800,4.373580810546875,2.8437504312515256,-0.2772670815899968,-0.18969342755526303
1741199028143551500,4.383551513671875,2.83193724386096,-0.4251987582147121,-0.1649937244541943
1741199028153522400,4.3935224609375,2.8577082294553517,-0.633596593979001,-0.24551146862804887
1741199028163493600,4.40349365234375,2.9723487541139124,-0.8351622456356883,-0.2622282101511955
1741199028173464600,4.413464599609375,3.0248259603261944,-0.9243862972259521,-0.2562747085742652
1741199028183435800,4.423435791015625,2.9929835458636282,-0.9403592346444726,-0.32495106217637654
1741199028193406500,4.433406494140625,2.853998269021511,-0.9390949137970804,-0.35651407517567274
1741199028203377400,4.44337744140625,2.8303151956170796,-0.9045955550849437,-0.46157866997644303
1741199028213347600,4.45334765625,3.0170676012843844,-0.7815759091377258,-0.6108636609062552
1741199028223318500,4.463318603515625,3.241275585120916,-0.7227031566694379,-0.724148094780743
1741199028233289500,4.47328955078125,3.2034622795552012,-0.8974887918196618,-0.807853382949531
1741199028243260700,4.4832607421875,3.1326404383569955,-1.097183681168407,-0.7480150003194809
1741199028253231600,4.493231689453125,3.157488463887572,-1.376810916018486,-0.6921070890061557
1741199028263202600,4.50320263671875,2.969790301802754,-1.7293997805744408,-0.6711163234256208
1741199028273173500,4.513173583984375,2.124305691856146,-2.060238001093268,-0.8957721971601247
1741199028283144700,4.523144775390625,0.9815338333368301,-2.0704365928940476,-1.285722970252484
1741199028293115600,4.53311572265625,-0.19761223785579204,-1.8632462332233786,-1.6935167124189436
1741199028303085600,4.54308544921875,-1.4787579633206127,-1.6967989489600062,-2.0095970703974366
1741199028313056800,4.553056884765625,-2.4443857869952916,-1.2065312139853834,-2.3831335920445618
1741199028323027700,4.56302783203125,-3.196312992322445,-0.571360356426984,-2.764030413326621
1741199028332998400,4.572998291015625,-3.9907817007809876,0.03375263199806213,-2.7757635212182996
1741199028342969600,4.582969482421875,-5.0686768902420996,0.20131386885270475,-2.306092876331508
1741199028352939300,4.592939208984375,-5.647438316705823,0.006857026287913322,-1.6485511970110236
1741199028362910500,4.602910400390625,-5.409472441151737,-0.20322503623627125,-1.1193170409128068
1741199028372881400,4.61288134765625,-4.912435942694544,-0.3814835351288318,-0.9789116681396961
1741199028382852600,4.6228525390625,-4.335671243005991,-0.6861505186893045,-1.2305061099432408
1741199028392822500,4.632822509765625,-4.076173334601521,-0.7271362437460571,-1.7110751654632388
1741199028402793500,4.64279345703125,-4.2426112665146585,-0.5206862541139126,-2.2103370848849413
1741199028412764700,4.6527646484375,-4.505491803094745,-0.1712085073158145,-2.5160414486691356
1741199028422735400,4.6627353515625,-4.573241397240758,0.24328034857511519,-2.5903359344139694
1741199028432706300,4.672706298828125,-4.595191947764158,0.6892793912995606,-2.5526184904381632
1741199028442677500,4.682677490234375,-4.666209019273519,1.083940460974723,-2.4107258017167448
1741199028452648400,4.6926484375,-4.58424034563899,1.4982017917200923,-2.2183258916817605
1741199028462619600,4.70261962890625,-4.217656858000159,1.8635678663931785,-2.053951760430634
1741199028472590300,4.71259033203125,-3.542701833194494,2.0788274046204984,-1.9205206105843184
1741199028482560500,4.722560546875,-2.771167425599694,2.142896264427155,-1.87181810060516
1741199028492531500,4.732531494140625,-2.0097294646054507,2.1148463741153476,-1.9076906473666428
1741199028502502400,4.74250244140625,-1.220952245786786,2.007043440391868,-2.0381787294983864
1741199028512473600,4.7524736328125,-0.5698690949559211,1.8657443336494266,-2.1844541633486747
1741199028522444500,4.762444580078125,-0.08854279132783413,1.608866836876422,-2.288808710183948
1741199028532415500,4.77241552734375,0.21855624168515203,1.2882754312142728,-2.317916146724671
1741199028542386400,4.782386474609375,0.49908407863676546,1.0307217887453735,-2.2348212455391883
1741199028552357400,4.792357421875,0.7470575534641742,0.8604004395276308,-2.0386647594496607
1741199028562328600,4.80232861328125,1.1221528488606214,0.7916025053724646,-1.7541849700018763
1741199028572298500,4.812298583984375,1.5586626901626586,0.8388714754171669,-1.4548554019466042
1741199028582269400,4.82226953125,1.894981972441077,0.9286930545091628,-1.126535082532838
1741199028592240600,4.83224072265625,2.1787772867560387,0.9579851999670267,-0.8511310183357447
1741199028602211600,4.842211669921875,2.503979547214508,0.8976945435248315,-0.7083486872982233
1741199028612182300,4.852182373046875,2.813877855557203,0.6798664699837565,-0.754399586790055
1741199028622153500,4.862153564453125,3.3452690435588357,0.5353957474678754,-0.8853413309734314
1741199028632124400,4.87212451171875,4.003797249698638,0.46169776631146664,-1.0219518415082245
1741199028642095600,4.882095703125,4.54486928923726,0.4164817832738161,-1.0599877037834375
1741199028652066600,4.892066650390625,4.9259424899995325,0.3713192839890718,-0.9129192929245531
1741199028662036500,4.902036376953125,5.126942032206058,0.25803631141930816,-0.6267400791477412
1741199028672007700,4.912007568359375,5.210378440305591,0.1090592173948884,-0.24136034029796719
1741199028681978400,4.921978271484375,5.148137964969873,-0.10408932002782821,0.04444214912094176
1741199028691949300,4.93194921875,4.982323133391142,-0.21095541129261253,0.16769903789013624
1741199028701920500,4.94192041015625,4.864505147740244,-0.23379911126345396,0.12319207990467548
1741199028711891500,4.951891357421875,4.713418514215946,-0.352741717030108,0.038015696270018814
1741199028721862700,4.961862548828125,4.285033527180552,-0.6120961253106594,0.14679551220163703
1741199028731833300,4.971833251953125,3.4778415307492017,-0.8100748583912849,0.4124562540847808
1741199028741804300,4.98180419921875,2.856426372951269,-0.6319353827685117,0.6926063437651843
1741199028751774500,4.9917744140625,2.7379636596560477,-0.22689766131192443,0.7935560505930334
1741199028761745400,5.001745361328125,2.523033791774511,0.025725392886996268,0.8218365347903221
1741199028771716400,5.01171630859375,2.143783130264282,0.1807511194258928,0.8790541404627263
1741199028781687600,5.0216875,2.498266430264711,0.24457535682171583,1.090737719899416
1741199028791658500,5.031658447265625,2.509095282793045,0.4600225265756249,1.7199340330928563
1741199028801629400,5.04162939453125,1.8949270273834466,0.38245208790004254,2.4994039098620413
1741199028811600400,5.051600341796875,0.5409703327298164,-0.33125761497467754,3.1010747950091955
1741199028821571600,5.061571533203125,-0.6699807435244322,-0.6557549420341849,3.471339309248328
1741199028831541500,5.07154150390625,-1.1526567081958055,-0.1982210174039006,3.761446875450015
1741199028841512400,5.081512451171875,-1.7188807246476412,0.275948107945919,4.252039020073414
1741199028851483600,5.091483642578125,-1.970468298318982,0.30811069427356125,4.401318311914801
1741199028861454600,5.10145458984375,-2.28715056771338,0.17504487060829996,4.111446015773713
1741199028871425300,5.11142529296875,-2.5687743832081553,0.14231661322191358,3.463681195710599
1741199028881396500,5.121396484375,-3.3615514853179453,0.10073168016299605,2.8602143670573827
1741199028891367400,5.131367431640625,-5.038212193873524,-0.03134995477050543,2.740299993649125
1741199028901338600,5.141338623046875,-6.869509921911359,-0.17579631003011018,3.1727175972014665
1741199028911309600,5.1513095703125,-6.904293650522828,-0.013104524109046906,3.0980425877064466
1741199028921279500,5.161279541015625,-5.476334146547317,0.33641941818464544,2.8076874764844773
1741199028931250700,5.171250732421875,-4.815264439231157,0.4494971139732748,2.8490140508681536
1741199028941221400,5.181221435546875,-4.63687186563015,0.5394375702045857,3.2680729911535975
1741199028951192300,5.1911923828125,-4.334801474434137,1.0164674918130039,4.004024044191837
1741199028961163500,5.20116357421875,-4.470364960134029,1.3650038661077617,4.460857419337332
1741199028971134500,5.211134521484375,-6.898164353987574,1.5100484429888426,4.440118582691252
1741199028981105700,5.221105712890625,-3.7147646192520853,1.4293864680387078,3.593862111589312
1741199028991076400,5.231076416015625,-3.283892491576075,1.0894457073275,2.852084544354677
1741199029001046500,5.241046630859375,-2.9455653766065835,1.2849572465769945,2.0698554320052267
1741199029011017500,5.251017578125,-1.4746318233013151,1.4438848028600215,1.0648483686223627
1741199029020988400,5.260988525390625,-0.8145166402310132,1.3964870918691157,0.5463461805492639
1741199029030959400,5.27095947265625,-0.20198153898119925,1.097669857250154,0.4196548603519797
1741199029040930600,5.2809306640625,0.5651350521713495,0.7371615978717804,0.11766951709091662
1741199029050901500,5.290901611328125,0.8022083627998828,0.4715521477844566,-0.1796601093187928
1741199029060872400,5.30087255859375,0.9415174647688865,0.16190825259424746,-0.7128960484042763
1741199029070843400,5.310843505859375,-0.1667921521782875,-0.06706226946897804,-0.5720639746516942
1741199029080813300,5.320813232421875,-0.8343991523087024,-0.08056333688125014,-0.6650364189900457
1741199029090784500,5.330784423828125,-1.483604818829894,0.20357699147909877,-0.5036695067308843
1741199029100755500,5.34075537109375,-1.1490402712643146,0.49401539707034825,-0.3459323292762041
1741199029110726400,5.350726318359375,-0.5096826295405626,0.6329734936445951,-0.129785779081285
1741199029120697600,5.360697509765625,0.10889759709239005,0.5806427101656794,0.1250427492726594
1741199029130668300,5.370668212890625,0.7035802307873964,0.3811041804224252,0.45790246568173165
1741199029140639500,5.380639404296875,1.6257435912668705,0.3339380862303078,0.633885640053451
1741199029150610400,5.3906103515625,2.5987264538794754,0.3880823488719761,0.6236244313452393
1741199029160580400,5.400580322265625,3.156331695067882,0.36589170598238707,0.2595742615763098
1741199029170551600,5.410551513671875,3.2392864571303126,0.21744550396427512,-0.07283062373735011
1741199029180522500,5.4205224609375,3.4784622929960487,0.04582593162953853,-0.2892210656907409
1741199029190493700,5.43049365234375,4.071399544328451,-0.17729060370847582,-0.37126528877951204
1741199029200464400,5.44046435546875,4.609502212667465,-0.4169881253607571,-0.2943975915458053
1741199029210435300,5.450435302734375,4.796111994993686,-0.5460664868250489,-0.10007022057957947
1741199029220406500,5.460406494140625,4.76115583242476,-0.5529626760795712,-0.05595613436922431
1741199029230377500,5.47037744140625,4.474509804853796,-0.5900026591852306,-0.21494170444980262
1741199029240348700,5.4803486328125,3.7909833510577675,-0.7747201980240642,-0.2606485397443175
1741199029250318600,5.490318603515625,3.456370288175344,-0.6943513608016073,-0.4127531912047416
1741199029260289500,5.50028955078125,3.3907734881490468,-0.6031840661890805,-0.37398192732706664
1741199029270260500,5.510260498046875,2.918577416437864,-0.6898791838236152,-0.299312909181416
1741199029280231400,5.5202314453125,2.4771342103868723,-0.6903193288065492,-0.15556713993921875
1741199029290202400,5.530202392578125,2.214901324060559,-0.6723791829682886,-0.08913549652397632
1741199029300173600,5.540173583984375,2.1730127318799495,-0.828540197147429,-0.14439583064876496
1741199029310144500,5.55014453125,2.2249562696069476,-0.9255077024713158,-0.16167079057656228
1741199029320114400,5.560114501953125,2.303853280711174,-0.9732219320654869,-0.13500051805488764
1741199029330085600,5.570085693359375,2.5795745941638946,-1.0848936700463294,-0.16888320617340505
1741199029340056300,5.580056396484375,2.8956512988805767,-1.2676809714749455,-0.19673538195602594
1741199029350028000,5.590028076171875,2.9657196913629766,-1.4123741045698524,-0.16444376242123543
1741199029359999200,5.599999267578125,2.721317645281553,-1.4116311772480605,-0.12271072612851858
1741199029369970200,5.60997021484375,2.0470798288345335,-1.3409881997480988,0.24036979489065705
1741199029379940900,5.61994091796875,1.3139105154693127,-1.0061030419260262,0.3975179204110056
1741199029389912000,5.629912109375,0.43809331110119815,-0.42813218131810427,-0.3086947047065943
1741199029399882000,5.639882080078125,-0.6674637922674417,0.11601035170704126,-1.263137628956884
1741199029409853000,5.64985302734375,-1.0937450850218533,0.5309317537963391,-2.0138298856616017
1741199029419824000,5.65982421875,-0.774283414041996,0.5426148850664496,-2.6449358318686484
1741199029429795000,5.669795166015625,0.005843465331196784,0.2445738955169916,-3.2296617196947333
1741199029439766300,5.679766357421875,-0.5727379283905029,-0.11027210031598805,-3.6754613673895595
1741199029449737000,5.689737060546875,-2.370989711394906,-0.08305763791501522,-4.0302898275658485
1741199029459708200,5.699708251953125,-4.195678250426054,0.2948774109520018,-4.095597581517696
1741199029469679000,5.70967919921875,-6.327269423115253,0.7637773637272417,-3.841604700270295
1741199029479649000,5.71964892578125,-8.362062017306686,1.426758165361732,-3.452478541433811
1741199029489620200,5.7296201171875,-9.55505891919732,2.2360700765565036,-2.910017677885294
1741199029499591200,5.739591064453125,-9.75683587551713,2.855031119200587,-2.3027054258503017
1741199029509562000,5.74956201171875,-8.916614300665259,3.0219261472314596,-1.8750116359494626
1741199029519533000,5.759532958984375,-7.592932332766056,2.9890368540644645,-1.392689453151822
1741199029529504000,5.76950390625,-6.128959266123175,2.7904373587369915,-1.1856021154642105
1741199029539475200,5.77947509765625,-4.741856088671088,2.435231881941855,-1.5265394129320977
1741199029549445000,5.789445068359375,-3.542761454427242,1.8819110400743781,-2.0686000251166523
1741199029559416000,5.799416015625,-2.5198686057418582,1.2866124664381147,-2.525194476939738
1741199029569387300,5.80938720703125,-1.646609853684902,0.7880242084942758,-2.869859562759101
1741199029579358200,5.819358154296875,-0.878359874588251,0.41263986702337857,-2.9631618235737083
1741199029589329000,5.829328857421875,-0.2274596791088581,0.1760375349074602,-2.798026790952682
1741199029599300000,5.839300048828125,0.3409498646885156,0.0737123019427061,-2.4144759480305016
1741199029609271000,5.84927099609375,0.9520616551369429,0.1383580848544836,-1.963713563361764
1741199029619242200,5.8592421875,1.6321926212757825,0.2024137929186225,-1.5216123317934571
1741199029629212200,5.869212158203125,2.300169039240479,0.2538260002478957,-1.1246531412437557
1741199029639182000,5.87918212890625,2.268240700060129,0.3541922080993652,-1.102699960371852
1741199029649153000,5.889153076171875,3.004399258369207,0.28019875112771986,-0.9508470917154103
1741199029659124200,5.899124267578125,3.5302784049510954,0.2905778140619397,-0.562114498773776
1741199029669095000,5.909094970703125,3.9900206532806157,0.3757219028621912,-0.38021972573809326
1741199029679066000,5.919066162109375,3.9673300980448722,0.44688481258302926,-0.0749476889565587
1741199029689037000,5.929037109375,3.938682095709443,0.441566247908771,0.1972123152853921
1741199029699007000,5.939007080078125,4.068990145099163,0.4872387425422668,0.2975079055860638
1741199029708978200,5.948978271484375,4.217797143253684,0.5494257341250777,0.3190921070151031
1741199029718949000,5.95894921875,4.611028983843326,0.4997971953421831,0.2975882042806595
1741199029728920000,5.968920166015625,5.181577877756953,0.40490649629235265,0.34061869650539006
1741199029738891000,5.97889111328125,5.425857174241543,0.260946061386168,0.5626394724959507
1741199029748862000,5.988862060546875,5.185729152217507,0.07697568765282631,0.7483778422825038
1741199029758833200,5.998833251953125,4.58778371733427,0.019860007984936236,0.8623378373309969
1741199029768804000,6.00880419921875,4.041299005097151,0.04870470193624496,0.714333533861488
1741199029778774000,6.01877392578125,3.6062551446944475,0.028573768055438993,0.40670145341772584
1741199029788745200,6.0287451171875,3.177788909116387,-0.13971943633556366,0.20216069494038819
1741199029798716200,6.038716064453125,2.839761069354415,-0.3132943805217743,-0.03580499795060604
1741199029808687000,6.04868701171875,2.7797610664218664,-0.4592088721051812,-0.1425707706460729
1741199029818658000,6.058657958984375,2.809135629466176,-0.6090469668731093,-0.11656389393657446
1741199029828629000,6.06862890625,2.602626968449354,-0.6625476709142327,-0.021950148664601148
1741199029838600200,6.07860009765625,1.9055588960349559,-0.5896382097870111,0.1625154612397775
1741199029848571100,6.088571044921875,0.5712538273125887,-0.501971909032762,0.500578335782513
1741199029858541000,6.098541015625,-0.9407546637028456,-0.4168573385879397,1.0037623970840126
1741199029868512300,6.10851220703125,-2.1317489935994147,-0.38637715238928794,1.469779707095027
1741199029878483000,6.11848291015625,-2.8035908548206088,-0.5421019671082496,1.8129836343206465
1741199029888454100,6.1284541015625,-2.7647569740355014,-0.9464671961307525,2.127680575116724
1741199029898425000,6.138425048828125,-2.251934877425432,-1.3667019021973013,2.516027127882838
1741199029908396000,6.14839599609375,-1.6469933000445365,-1.6676427048414946,2.827938237352669
1741199029918367200,6.1583671875,-1.2108487849235534,-1.858974547253549,2.9048993119582533
1741199029928337200,6.168337158203125,-0.853864900279045,-1.950857588919997,2.7975860614478587
1741199029938308000,6.17830810546875,-1.0163456189990043,-2.0181313822478053,2.6509835876002907
1741199029948279000,6.188279052734375,-1.7566916921257971,-2.122727482753992,2.5143828678071496
1741199029958250000,6.19825,-2.4646049836814403,-2.110419789844751,2.4650629565820097
1741199029968221200,6.20822119140625,-2.7968647614359856,-1.8717732385501265,2.5528531759768724
1741199029978192100,6.218192138671875,-2.8882652802824973,-1.4688944486930966,2.6559938169777393
1741199029988163000,6.2281630859375,-3.247014421033859,-1.0423039438590407,2.561507314814627
1741199029998134000,6.238134033203125,-3.8404192898780107,-0.7287278237864375,2.34211140743494
1741199030008104200,6.248104248046875,-4.2441023818552495,-0.4928574592068791,2.184676135536283
1741199030018075000,6.258074951171875,-4.39158543792963,-0.1823462796628475,2.17555686340481
1741199030028047000,6.268047119140625,-4.0291175689160825,0.6832227946743369,2.1369564991146324
1741199030038017000,6.27801708984375,-3.7026872279673815,1.1994276655904947,1.9216953534521162
1741199030047988200,6.28798828125,-3.7424697877794504,1.638975559414178,1.5766263630069792
1741199030057959200,6.297959228515625,-4.1117514284610746,2.1002152066946027,1.174926553801447
1741199030067929900,6.307929931640625,-4.626465622428059,2.682446939617395,0.8353477582704275
1741199030077901000,6.317901123046875,-5.016531692463159,3.157256993219256,0.6369089333973824
1741199030087872000,6.3278720703125,-4.778063128083944,3.2985587303102015,0.5564529293481261
1741199030097843200,6.33784326171875,-3.858397429639101,3.1124685879439116,0.5677381473418325
1741199030107814100,6.347814208984375,-2.6950948242664334,2.7960975764557716,0.5957667026046664
1741199030117784000,6.3577841796875,-1.6112258210927246,2.498687870547175,0.5894903988141567
1741199030127755300,6.36775537109375,-0.703870153644681,2.2502562766887246,0.543211462720111
1741199030137726000,6.377725830078125,-0.08750058879852295,2.000315739572048,0.5554442637622357
1741199030147697200,6.387697265625,0.40373569894731043,1.8585364480972288,0.6540829902339726
1741199030157668000,6.397668212890625,0.9444938502311706,1.8015131228879093,0.8943030744556337
1741199030167639000,6.40763916015625,1.587918010741472,1.7709049263954162,1.1614881032966076
1741199030177610200,6.4176103515625,2.257783603453636,1.6901707629919052,1.3854595018982887
1741199030187581200,6.427581298828125,2.843141943964362,1.5541402443021535,1.4247481407135725
1741199030197551000,6.437551025390625,3.306476079306006,1.5146674810916185,1.4181775301516055
1741199030207522000,6.44752197265625,3.7732963031977413,1.4862348750725387,1.3746882247760892
1741199030217493000,6.457492919921875,4.109292929393053,1.4668524214714764,1.2984350061789154
1741199030227464200,6.467464111328125,4.379209940481186,1.4962012655526398,1.2161862734939903
1741199030237435100,6.47743505859375,4.509159093430638,1.4616492998704314,1.0335298319034278
1741199030247406000,6.487406005859375,4.556919792515039,1.4524562318503855,0.7906121060956269
1741199030257377000,6.497376953125,4.6793666070103646,1.410574946193397,0.45804775590393687
1741199030267347200,6.50734716796875,4.88696890848279,1.2279416662827134,0.1309929263813421
1741199030277318000,6.51731787109375,5.133752296742797,0.934710999624431,-0.1987663763269782
1741199030287289000,6.5272890625,5.123863939934969,0.6614183746233582,-0.5315683346668258
1741199030297260000,6.537260009765625,4.879888594833016,0.4826718730181455,-0.852013134932518
1741199030307231200,6.547231201171875,4.53796842380762,0.37576252713352437,-1.035570543950796
1741199030317202200,6.5572021484375,4.438996008402109,0.26234920618236063,-1.0667525217432527
1741199030327173000,6.567173095703125,4.655528050783277,0.14864362428635358,-0.9988867538716644
1741199030337144000,6.57714404296875,4.576666695514321,-0.023893793545663355,-0.8488342857006936
1741199030347114000,6.587114013671875,4.134211682072282,-0.33444209022969007,-0.856758722024411
1741199030357085000,6.5970849609375,3.5989158878475425,-0.6386123763144016,-0.9998627592969686
1741199030367056000,6.607055908203125,2.9928835926204918,-0.8177727194175124,-1.0837128627639263
1741199030377027000,6.617027099609375,2.40419815351367,-0.9595330139309167,-1.1531884039197116
1741199030386998000,6.626998046875,2.002197900056839,-1.227782091806829,-1.2849167684361338
1741199030396969000,6.636968994140625,1.7360300123691559,-1.5386533368349073,-1.4427341715201734
1741199030406940000,6.64693994140625,1.7683564109563827,-1.514295432908833,-1.5326149334535002
1741199030416910800,6.656910888671875,2.443126142323017,-1.463425661893189,-1.5073932523049414
1741199030426881000,6.666881103515625,2.9546558610349893,-1.5413991284117101,-1.4060349646762014
1741199030436852000,6.67685205078125,2.2047809120625255,-1.331124100598693,-1.4774189698018132
1741199030446823000,6.686822998046875,0.9573848959863185,-0.7016749816879629,-1.8943457203641532
1741199030456794000,6.696794189453125,-0.2765595178425312,-0.2469642977848649,-2.216133057812601
1741199030466764800,6.706764892578125,-1.333876614177227,-0.13421148656904697,-2.376945989450812
1741199030476736000,6.716736083984375,-2.456411155831814,-0.4081204899027943,-2.4251832200057803
1741199030486707000,6.72670703125,-3.3978473720580338,-0.38792131309136746,-2.482031334778666
1741199030496676900,6.7366767578125,-3.6719220873475074,-0.243585615132004,-2.5365789175242184
1741199030506648000,6.74664794921875,-3.5829099249422547,-0.5707784648858011,-2.578252697910368
1741199030516619000,6.756618896484375,-3.9169554170697927,-0.7570901410482823,-2.623769125199318
1741199030526590000,6.76658984375,-4.593019279900193,-0.42505978813543915,-2.87890737708956
1741199030536561000,6.776560791015625,-5.581704154035449,0.10620397409424186,-3.03317059482336
1741199030546531800,6.78653173828125,-6.101572662025689,0.689285090387985,-3.0103020526722073
1741199030556503000,6.7965029296875,-6.073770462864637,1.3092841708429157,-3.0345430522203443
1741199030566474000,6.806473876953125,-6.242068343430757,1.81454796102792,-3.1063655948936937
1741199030576444000,6.81644384765625,-6.401165264931321,2.225449167690426,-3.1841482150152323
1741199030586415000,6.8264150390625,-6.2638464599967,2.5309353586792946,-3.2775530594214795
1741199030596386000,6.836385986328125,-6.149332776588201,2.59666659874022,-3.5667245138168333
1741199030606356700,6.846356689453125,-5.673612622404098,2.4812583045795558,-3.9266447441741823
1741199030616328000,6.856327880859375,-4.89737515168488,2.288036118376255,-4.02871074168086
1741199030626299000,6.866298828125,-4.062153577077389,2.0908976355120537,-3.800598736143112
1741199030636270000,6.87627001953125,-3.336815103468299,1.9137591536253689,-3.2816210395127534
1741199030646240000,6.886239990234375,-2.766335183137655,1.7631880684077739,-2.657683377499878
1741199030656211000,6.8962109375,-2.3340789076268673,1.646097520248592,-2.1100163236103953
1741199030666182100,6.90618212890625,-1.8507652295738457,1.4627742122471332,-1.5613644964672624
1741199030676152800,6.91615283203125,-1.2798498404353855,1.2294709216766058,-1.0325099873363972
1741199030686124000,6.9261240234375,-0.617376696062088,1.00282781964764,-0.6136990304626524
1741199030696095000,6.936094970703125,0.21397651267945766,0.8202106140889227,-0.32406448860019443
1741199030706066000,6.94606591796875,1.2227373756378888,0.6537167142048478,-0.04224208179339766
1741199030716037000,6.956037109375,2.329044420590997,0.45209845557808875,0.18121099202260374
1741199030726007000,6.966007080078125,3.4096704963207243,0.2852465360365808,0.42829014835879203
1741199030735978000,6.97597802734375,4.35551576116085,0.18607319123148916,0.6796674402803182
1741199030745949000,6.985948974609375,5.110455592307448,0.08588131703361869,0.9074199648559093
1741199030755920000,6.995919921875,5.78620089070797,-0.014913345362991094,1.0522112976282834
1741199030765891000,7.00589111328125,6.120088561925292,-0.09709843822717666,1.1111475437868386
1741199030775862000,7.015862060546875,6.209501706346869,-0.12514248332008718,1.130011599536985
1741199030785833000,7.0258330078125,6.259084360161423,-0.15625293024629353,1.166943957549706
1741199030795804000,7.035803955078125,6.150450966963172,-0.17738924177736043,1.148878943222761
1741199030805774000,7.045774169921875,6.1126715636670585,-0.1412481072075665,1.1525590199749915
1741199030815744800,7.055744873046875,6.1846864140421145,-0.12788082224279643,1.1719966378293931
1741199030825716000,7.065716064453125,6.238633692806959,-0.17607552883028982,1.1958626665852963
1741199030835687000,7.07568701171875,6.403241486683488,-0.21694486096575855,1.2849559314027428
1741199030845658000,7.085658203125,6.766468649631738,-0.28891733350381255,1.46475208819136
1741199030855629000,7.095629150390625,6.943948784562945,-0.49426528017818927,1.6588915353700517
1741199030865599700,7.105599853515625,6.3641884101897475,-0.6378659418612718,1.7438953389167784
1741199030875570200,7.115570068359375,5.5441661582797765,-0.5966008884064853,1.5475617426946757
1741199030885540900,7.125540771484375,4.714029924112558,-0.4780754851385951,1.4020806740924716
1741199030895511800,7.13551171875,3.543863862711191,-0.4443542711921036,1.2837903947547078
1741199030905483000,7.14548291015625,2.143181657239795,-0.41910351007953284,1.1299434296716004
1741199030915454000,7.155453857421875,1.0370599057257175,-0.46423298387750983,0.932073198466748
1741199030925425200,7.165425048828125,0.4524316330552101,-0.7590138025872409,0.9673846772793679
1741199030935395800,7.175395751953125,0.21184885300099848,-1.0954321613259612,1.2913289735659956
1741199030945366800,7.18536669921875,0.43645314267873764,-1.2507871198192237,1.6355981919355689
1741199030955337000,7.1953369140625,0.4753454756528139,-1.3595951389320193,1.7299881018564105
1741199030965308000,7.205307861328125,-0.06607260084450245,-1.2940924469299613,1.4824191161766647
1741199030975278800,7.21527880859375,-1.1926175471842289,-1.0668348662644624,1.096681869126111
1741199030985250000,7.22525,-2.8744454292446373,-0.898138341769576,0.7702487516984343
1741199030995221000,7.235220947265625,-4.485228182744979,-0.829491214261949,0.5268675730973482
1741199031005192000,7.24519189453125,-5.1875347403347485,-0.8481723146606236,0.5293737106993794
1741199031015163000,7.255162841796875,-5.093101721924543,-1.1203651617262511,0.8801081795603036
1741199031025132800,7.2651328125,-5.023173030173778,-1.3612950747177004,1.3871572457268833
1741199031035104000,7.27510400390625,-5.389795096257329,-1.3374686473198234,1.7006584008671342
1741199031045075000,7.285074951171875,-5.952759234130382,-1.0115938944272695,1.8229140767045318
1741199031055046100,7.295046142578125,-6.474135808596015,-0.5077699277870357,1.8316423036918044
1741199031065017000,7.30501708984375,-6.73735186074078,-0.055213718504086136,1.8391706533700227
1741199031074987800,7.31498779296875,-6.651124945139885,0.3276833366844803,1.7968338790304959
1741199031084959000,7.324958984375,-6.2856666621387,0.7355823658563196,1.7247037317126988
1741199031094929000,7.334928955078125,-5.69953383012414,1.075303857793659,1.4946020136624574
1741199031104899800,7.34489990234375,-5.019233352637291,0.974716043080762,1.0873036537975072
1741199031114871000,7.35487109375,-5.131207288435101,0.9003450580336153,0.468355178374052
1741199031124842000,7.364842041015625,-5.591067025664448,1.000778193641454,0.011098170989006758
1741199031134813200,7.374813232421875,-5.916793017736077,1.1490787766437978,-0.005815700541436672
1741199031144784000,7.384783935546875,-5.778940544316172,1.5161869457438588,0.1283817575022578
1741199031154754800,7.3947548828125,-5.058272400605678,1.8338181864261627,0.3587349660955369
1741199031164726000,7.40472607421875,-3.9405391217529773,1.7890892562530933,0.6341304085947573
1741199031174696000,7.414696044921875,-2.920705660638213,1.5139425278179346,0.8308890983611344
1741199031184667000,7.4246669921875,-1.9676064791470764,1.1327294801935552,0.9169770438827574
1741199031194638000,7.43463818359375,-1.3827894059062003,0.6555703061822802,0.8291703117445111
1741199031204609000,7.444609130859375,-1.0767278992474079,0.26741379609555005,0.7127776827216148
1741199031214580000,7.454580078125,-0.5456611208945512,0.01033067548153922,0.5782355028934777
1741199031224551000,7.464551025390625,-0.01938917560279369,-0.2059562147658318,0.4390498081084341
1741199031234521900,7.47452197265625,0.41295536271333694,-0.2996767557914369,0.5158454630192368
1741199031244492000,7.484491943359375,1.0414753840804098,-0.30435477580614384,0.6272739668287336
1741199031254463000,7.494462890625,1.73027773245275,-0.2734670682525262,0.7076097785644233
1741199031264434000,7.504433837890625,2.293112690988183,-0.2734294761884957,0.8441904784828423
1741199031274405000,7.514405029296875,2.9676725789964196,-0.3316306130055338,0.9898482188262044
1741199031284375800,7.524375732421875,3.6223558001458644,-0.512347209107317,1.0178824001122266
1741199031294347000,7.534346923828125,4.138580983197689,-0.695360464778915,0.9576731383431702
1741199031304318000,7.54431787109375,4.445564865398406,-0.9477615467902273,0.7780027998913079
1741199031314287900,7.554287841796875,4.537677916428446,-1.3276146311730146,0.4656161087989807
1741199031324259000,7.564259033203125,3.8281139350563285,-1.5935038480497896,0.25703838642314075
1741199031334230000,7.57422998046875,2.668818227237463,-1.4928651068672536,0.1942177000466734
1741199031344201000,7.584200927734375,2.014407393288612,-1.114917052388191,0.1524958427350968
1741199031354171600,7.594171630859375,1.6042992366999387,-0.8431320554710924,0.09963993940353393
1741199031364142600,7.604142578125,1.1654711815834045,-0.6385589656267314,0.10469941475018858
1741199031374113800,7.61411376953125,0.7522685661107301,-0.4541660556323826,0.12636946783177555
1741199031384084700,7.624084716796875,0.7524550285935402,-0.2549069273523986,0.09773016025945544
1741199031394054700,7.6340546875,1.0294400783717632,-0.25227920919731256,0.11418518210649489
1741199031404025900,7.64402587890625,0.8738017728924751,-0.2751299234308302,-0.03357939432300627
1741199031413996800,7.653996826171875,0.28339024064540863,-0.2856739676684141,-0.34265805684588846
1741199031423967700,7.6639677734375,-0.2652911048531532,-0.31657296380102634,-0.5793713019903749
1741199031433938700,7.673938720703125,-0.565510899746418,-0.2002969468951225,-0.7827684799231588
1741199031443909600,7.68390966796875,-0.5583633660793305,-0.00940203459560871,-0.8864399398650974
1741199031453880800,7.693880859375,-0.2572387313008308,0.2343814411960542,-0.9369083635382354
1741199031463850800,7.703850830078125,0.28395898044407364,0.4193758972801268,-0.9703023182917385
1741199031473821700,7.71382177734375,0.5784603976905346,0.5026863409124315,-1.0938671770315618
1741199031483793000,7.72379296875,0.44243806230723853,0.7335067286260426,-1.3480255510389805
1741199031493763600,7.733763671875,0.15928864468038081,1.0221215720519423,-1.5071259796708822
1741199031503734800,7.74373486328125,-0.22669278638958928,1.0817029111810028,-1.5761575764514506
1741199031513705700,7.753705810546875,-0.8351800735533237,1.194322743666917,-1.6036334662675857
1741199031523676700,7.7636767578125,-1.3611024747550486,1.4178788394659756,-1.610479386639595
1741199031533648000,7.77364794921875,-1.800530833852291,1.518691768171638,-1.5124094730317592
1741199031543617800,7.78361767578125,-2.4981074403107164,1.4760494350142777,-1.4015040432482957
1741199031553588700,7.793588623046875,-3.49660643697381,1.4037529912188649,-1.2346416023127733
1741199031563559700,7.8035595703125,-4.721432893845439,1.4620048353098332,-1.0241734630804509
1741199031573530600,7.813530517578125,-5.744041080370545,1.8082633278004825,-0.8510050538685172
1741199031583501800,7.823501708984375,-6.000840835732221,2.278251806464791,-0.8042426451064646
1741199031593472800,7.83347265625,-5.38162289571762,2.6397879475861785,-0.9704884885136037
1741199031603442700,7.843442626953125,-4.3113837739676235,2.6986294281333683,-1.193720028533414
1741199031613414000,7.853413818359375,-3.028412002119422,2.529203420320153,-1.3580809349767864
1741199031623384800,7.863384765625,-1.8665934978246688,2.39765633065477,-1.6533479297682643
1741199031633355500,7.87335546875,-1.0303758979171513,2.2913155784383417,-2.0868536208182573
1741199031643326700,7.88332666015625,-0.401580566740036,2.056081465935707,-2.5847441057562826
1741199031653297700,7.893297607421875,-0.015928221493959425,1.677245376575738,-3.0900168099001046
1741199031663268900,7.903268798828125,0.041134558942914005,1.3084113335311411,-3.515411090686917
1741199031673239800,7.91323974609375,0.013657353952527046,1.0782909107804297,-3.5480589763134716
1741199031683209700,7.923209716796875,0.23010230257213116,0.9041764528900385,-3.3882150358378884
1741199031693180700,7.9331806640625,0.37833822284042834,0.7757768674701452,-3.103606651574373
1741199031703151600,7.943151611328125,0.6170177996218205,0.8371028583094478,-2.5131995032414793
1741199031713122600,7.95312255859375,1.1141577584534883,0.9914338805824517,-1.806514730567485
1741199031723093800,7.96309375,2.1453350358814,1.18337421028167,-0.977986662249267
1741199031733064700,7.973064697265625,2.7610861765682695,1.2546294744610786,-0.26530177237763997
1741199031743036000,7.983035888671875,3.0122949800550938,1.2684887807264924,0.09441372918784618
1741199031753005800,7.993005859375,3.3740725287169218,1.3441373114287853,0.0364750426992774
1741199031762976800,8.002976806640625,3.9523067164361474,1.304569855672121,-0.09803586520776152
1741199031772947700,8.01294775390625,4.412127290698885,0.9353712170988321,-0.11453545684888958
1741199031782918700,8.022918701171875,4.662697211760282,0.392483068048954,-0.1208658289141953
1741199031792889900,8.032889892578124,4.625466089996695,0.02397416530549526,-0.06633548956438899
1741199031802860800,8.04286083984375,4.708886131483316,-0.1167187922373414,-0.04356207835078239
1741199031812831700,8.052831787109374,4.923455933880805,-0.19735534048527478,0.0834996825940907
1741199031822802000,8.062802001953125,5.219313441911339,-0.17810849596261977,0.24606252663955092
1741199031832772600,8.072772705078124,5.193534273010492,-0.2039882026284933,0.35501287683248517
1741199031842743600,8.08274365234375,4.9205076054692265,-0.2746738502264023,0.36580008217617865
1741199031852714800,8.09271484375,4.269778674903511,-0.3877957870155573,0.31405308993458747
1741199031862685700,8.102685791015626,3.844116390830278,-0.5667863265097141,0.2758252122186124
1741199031872657000,8.112656982421875,3.348942763635516,-0.7819567251488566,0.15192498404458163
1741199031882627800,8.1226279296875,2.3744465738505123,-0.8737398135721683,-0.02503068862110376
1741199031892597800,8.13259765625,1.4368611878335475,-0.7046174648806453,0.08650412510707974
1741199031902568700,8.142568603515626,1.0699416001081465,-0.5042068284779787,0.4323004069134593
1741199031912539600,8.15253955078125,0.9966975001990794,-0.5070207168549299,0.710580464938283
1741199031922510600,8.162510498046874,0.4922860890597105,-0.7644719218626618,1.204717442561686
1741199031932481800,8.172481689453125,-0.06396598395407199,-1.0144991143494844,1.7773346671819685
1741199031942452700,8.18245263671875,-0.42057811267673967,-0.9643602879568934,2.2137271657146513
1741199031952424000,8.192423828125,-0.4915589438289404,-0.8050175750017166,2.5136612755343317
1741199031962393900,8.202393798828124,-0.34057635520100593,-0.7977531369566917,2.373208556488156
1741199031972364500,8.212364501953125,0.0955757587045431,-0.9528992750048637,2.1257427389219403
1741199031982335700,8.222335693359375,0.6800280902862549,-1.063590769776702,2.0782756159566342
1741199031992306700,8.232306640625,0.9760445882707833,-1.1705381095841527,2.146871013277024
1741199032002277600,8.242277587890625,0.7982792066574096,-1.252000587262213,2.186412457809597
1741199032012248800,8.252248779296876,0.5515636229366063,-1.3990014127776025,1.9449395970478653
1741199032022219800,8.2622197265625,0.4182318418115377,-1.5637638126939535,1.6916878895565866
1741199032032189700,8.272189697265626,0.1115577562123537,-1.7358929419860243,1.3798304099701344
1741199032042160600,8.28216064453125,-0.7085825691193341,-2.116321122843027,1.0237921356126665
1741199032052131600,8.292131591796876,-2.2263141139566898,-2.41260883898437,0.7150127482973039
1741199032062102800,8.302102783203125,-3.933784386795759,-2.4262068639650938,0.37544030944183465
1741199032072073700,8.31207373046875,-5.580080936747789,-2.051205676592886,0.13600699168369174
1741199032082044700,8.322044677734375,-6.625431116434932,-1.6019155564337968,-0.04973638307154178
1741199032092015600,8.332015625,-7.058567097389697,-1.0981237384974956,0.08464680680260062
1741199032101985800,8.34198583984375,-6.83002488374114,-0.541099804328382,0.35783991695195433
1741199032111956700,8.351956787109375,-6.298185951972007,-0.11394932752400636,0.6923197088435292
1741199032121927700,8.361927734375,-5.344892124691605,0.1733291527315974,0.8024268278561532
1741199032131898600,8.371898681640625,-4.288682112815976,0.49482203727811575,0.7610054147958755
1741199032141869800,8.381869873046876,-3.36840558899641,0.799319071099162,0.5612437438212334
1741199032151840800,8.3918408203125,-2.6497020233571527,1.0995075940713286,0.31718992665559054
1741199032161810700,8.401810791015626,-1.8743822520047426,1.3045090653955935,0.11199600149914622
1741199032171782000,8.411781982421875,-1.079724742975831,1.4179983741924165,-0.05713738004304468
1741199032181752600,8.421752685546876,-0.22336334970593452,1.3818065323486923,-0.13126198911368847
1741199032191723800,8.431723876953125,0.7196113281339407,1.3030746486783027,-0.2873630897991359
1741199032201694700,8.44169482421875,1.488097454074025,1.237462943343818,-0.33558841072060164
1741199032211665700,8.451665771484375,2.2654928626567123,1.190476151241362,-0.33563027710095045
1741199032221636900,8.461636962890625,3.0035797586798667,1.0996306359291077,-0.38531821792088444
1741199032231606800,8.471606689453125,3.4776813717514274,0.8592905785895883,-0.4550254489406943
1741199032241577700,8.48157763671875,3.866666076290607,0.5691375658109784,-0.5935760606925934
1741199032251548700,8.491548583984375,4.156297257152199,0.3698914431430399,-0.7200409517228603
1741199032261519600,8.50151953125,4.429609171375632,0.2748901233255863,-0.6816591986194253
1741199032271490800,8.51149072265625,4.668456505939364,0.3122238286808133,-0.48889841938279566
1741199032281461800,8.521461669921875,4.847285132870078,0.45679070504754776,-0.21247619111910462
1741199032291432700,8.5314326171875,4.957523038655519,0.6655053516760469,0.10534140244815499
1741199032301403000,8.54140283203125,4.941922149419784,0.7114741989076138,0.3036767669467255
1741199032311373800,8.551373779296876,4.778344867634773,0.5436242082394659,0.25749139088764783
1741199032321344500,8.561344482421875,4.591176282382011,0.2904332910247147,-0.08285491841714829
1741199032331315700,8.571315673828124,4.36062682056427,0.11339315494596958,-0.358998731598258
1741199032341286700,8.58128662109375,4.302653355023264,-0.09178206551000476,-0.4304773927373811
1741199032351257900,8.5912578125,4.3724674804836505,-0.3969961615592241,-0.38884887626506387
1741199032361227800,8.601227783203125,4.359653591617942,-0.5984723813667893,-0.3267169758703559
1741199032371199000,8.611198974609374,4.392744544836878,-0.625751579567045,-0.29056064373143015
1741199032381170000,8.621169921875,4.446020792472362,-0.596887742523849,-0.218665401148051
1741199032391140900,8.631140869140625,4.395369048121571,-0.5651990573182701,-0.04766308392882347
1741199032401111800,8.64111181640625,4.654623210898041,-0.43434433383122084,-0.024084639942646025
1741199032411082800,8.651082763671875,5.075070390671491,-0.2974544218331575,-0.12838278041556478
1741199032421054000,8.661053955078126,5.223177131602168,-0.28269992029368873,-0.3141425217837095
1741199032431023900,8.67102392578125,5.3867631812155246,-0.1275315704137087,-0.5721101518809795
1741199032440994800,8.680994873046876,5.700792890274524,0.27012429716326297,-0.7133529983915388
1741199032450965800,8.6909658203125,6.15856705340147,0.6798813752919435,-0.7397001764386892
1741199032460936700,8.700936767578124,6.7279065715253346,1.0753893441200255,-0.8739785907641052
1741199032470908000,8.710907958984375,7.386901810654997,1.7564013308770954,-1.0828127721190453
1741199032480878800,8.72087890625,8.131865022188425,2.6798081155464053,-1.4408639937341212
1741199032490848800,8.730848876953125,8.70759920978546,3.76781524143815,-1.8730087716944515
1741199032500820000,8.740820068359374,8.893085541039705,4.95272820559442,-2.2842497317053376
1741199032510791000,8.750791015625,8.702699162784219,6.184682322388887,-2.8949507493957873
1741199032520761900,8.760761962890625,7.752264816588163,7.442225053948164,-3.7775221041992304
1741199032530732800,8.77073291015625,5.816144193550944,8.923900366020202,-4.620061892865598
1741199032540703700,8.780703857421875,3.0996669740378855,10.58447094051838,-5.385947188657522
1741199032550675000,8.790675048828126,0.13220482292175292,11.992186697888373,-6.575837356704473
1741199032560644900,8.800644775390625,-2.4570506227791307,13.119096970409155,-7.77392310616672
1741199032570615800,8.81061572265625,-4.504097133865952,13.794427842789888,-8.536086458826064
1741199032580587000,8.8205869140625,-5.508559422847628,13.708403756284714,-8.214892264965176
1741199032590557700,8.8305576171875,-5.314186020782589,13.342743228709697,-7.068695692694186
1741199032600529000,8.84052880859375,-4.9688136634767055,12.690447194957732,-5.632576263138652
1741199032610499800,8.850499755859374,-4.706255782979727,11.477625064134598,-4.862995327699184
1741199032620469800,8.8604697265625,-5.311449873816967,10.20216322952509,-5.172876100385189
1741199032630441000,8.87044091796875,-6.15239450224638,9.274819251537323,-5.950256311398745
1741199032640412000,8.880411865234375,-6.20515461705327,8.572146783244609,-6.240690625336766
1741199032650382800,8.8903828125,-5.981592529904842,7.887088297575712,-6.091828097602725
1741199032660353800,8.900353759765625,-5.709002500215172,7.0965341322124,-6.097588560825586
1741199032670324700,8.91032470703125,-5.7971092382133005,6.030956572532653,-6.404724418717622
1741199032680294700,8.920294677734375,-5.851808796650171,4.731610588988661,-6.632318537861108
1741199032690265900,8.930265869140625,-5.615127700209618,3.4732349137365817,-6.52354836654067
1741199032700236800,8.94023681640625,-5.138886152499913,2.278051315456629,-6.200641523543
1741199032710208000,8.9502080078125,-4.656220124700665,1.2458137153208255,-5.641714093840122
1741199032720179000,8.960178955078124,-4.005799237170815,0.555290534505248,-4.892056587010622
1741199032730149600,8.970149658203125,-3.548409397186339,0.15854221022725104,-3.961686539199948
1741199032740120800,8.980120849609374,-2.9908740063637493,-0.3909305779099464,-3.0724060421466826
1741199032750090800,8.9900908203125,-2.3712568378984926,-0.9362585213273763,-2.2072499325245616
1741199032760061700,9.000061767578124,-1.651856229905784,-1.374373459738493,-1.404511408370733
1741199032770033000,9.010032958984375,-0.8896879088103771,-1.7879454930454493,-0.739873779439926
1741199032780003800,9.02000390625,-0.21683891637325287,-2.2472230464726684,-0.30536183395683764
1741199032789975000,9.02997509765625,0.39404841766953463,-2.846051693931222,-0.11671148571372031
1741199032799945700,9.03994580078125,0.7599035910338163,-3.5678041257470845,-0.11535539492964744
1741199032809916000,9.049916015625,1.0879983580633996,-4.252484425753355,-0.15683131465613842
1741199032819886800,9.059886962890625,1.4631816240042448,-4.831462709838152,-0.20627602130472658
1741199032829857800,9.06985791015625,1.8744068019241094,-5.208735933795571,-0.1927981155723333
1741199032839828700,9.079828857421875,2.4102801037758588,-5.4588633717864745,-0.047049920466542244
1741199032849800000,9.089800048828126,2.822225997185707,-5.508908382415771,0.06883914294838905
1741199032859771000,9.09977099609375,2.98402808599174,-5.452007514542341,0.25245120476335287
1741199032869741000,9.109740966796876,2.953985414427519,-5.369332153943181,0.3535688155040145
1741199032879711700,9.119711669921875,2.642214882472157,-5.201288540399074,0.36604368167370555
1741199032889682700,9.1296826171875,2.1361603803008795,-4.8847231753826135,0.17300883473604917
1741199032899654000,9.13965380859375,1.5753642341166734,-4.408731803041697,-0.15504852289259433
1741199032909624800,9.149624755859374,0.9688210667580366,-3.7955695098042486,-0.39012335318028923
1741199032919596000,9.159595947265625,0.428227750647068,-3.033989509990811,-0.6622311523109674
1741199032929566000,9.16956591796875,-0.30857670435011386,-2.1460037289232012,-0.8970943856745958
1741199032939537000,9.179536865234375,-1.2789546451613307,-1.1354729336827993,-1.0918798756718635
1741199032949507800,9.1895078125,-2.4476962267175315,-0.38232466212809085,-1.123805876764655
1741199032959478800,9.199478759765626,-3.6856057447850703,-0.24165245511233804,-1.0648334633141756
1741199032969449700,9.20944970703125,-4.612287459471822,-0.4511643895983696,-1.2460931167840956
1741199032979421000,9.2194208984375,-5.3563259573757644,-0.8658294788390397,-1.8593828357934952
1741199032989392000,9.229391845703125,-5.881444056457281,-1.2351350849181413,-2.655057997432351
1741199032999361800,9.23936181640625,-6.008824820223451,-1.4146148692339657,-3.548385139527917
1741199033009333000,9.2493330078125,-5.861607721608877,-1.4437410104751587,-4.349924809285998
1741199033019303700,9.2593037109375,-5.514184276992082,-1.3684382244706152,-4.780359422327578
1741199033029275000,9.26927490234375,-5.08837001722753,-1.1949153027325867,-5.059229847460985
1741199033039245800,9.279245849609374,-5.035198399010301,-0.9637433251023292,-5.217389780372381
1741199033049216800,9.289216796875,-5.4876095737993715,-0.8564578393816947,-5.3371594846129415
1741199033059187000,9.29918701171875,-6.2256841948628425,-0.6924141091287136,-5.489336251461506
1741199033069158000,9.309157958984375,-7.149547344997525,-0.5588771608203649,-5.617164174473285
1741199033079128800,9.31912890625,-7.975505416697263,-0.5409323388069868,-5.69104715680778
1741199033089099800,9.329099853515626,-8.559064014309644,-0.49398237158358094,-5.730909796118736
1741199033099070700,9.33907080078125,-9.085327776294946,-0.37918636410236356,-5.746297334864735
1741199033109042000,9.3490419921875,-9.547885666567087,-0.4144856410205364,-5.536458652642369
1741199033119011800,9.35901171875,-9.629518240115045,-0.8508037591427564,-5.129198286700248
1741199033128982800,9.368982666015626,-8.926021011435985,-1.6246359222859144,-4.718140574301779
1741199033138954000,9.3789541015625,-7.591946244338154,-2.3999919339954854,-4.616668158774077
1741199033148925000,9.388925048828124,-6.173321554940938,-2.9263667551398274,-4.8545735363125795
1741199033158895600,9.3988955078125,-4.835330491182208,-3.199755241730809,-5.126054727977514
1741199033168866800,9.40886669921875,-3.59739145475924,-3.3375387415677307,-5.638031021413207
1741199033178836700,9.418836669921875,-2.7455653668314217,-3.2501281691402193,-6.207707808667421
1741199033188807700,9.4288076171875,-2.471982818973064,-3.013890724813938,-6.735969466471672
1741199033198779000,9.43877880859375,-2.5000398696780204,-2.8164970981448887,-7.1825740008085965
1741199033208749800,9.448749755859374,-2.5703964314520356,-2.5951515180021523,-7.593667076781392
1741199033218721000,9.458720947265626,-2.6613252411335706,-2.3381752370297906,-7.90260735374689
1741199033228691700,9.468691650390625,-2.743671515908837,-2.088028509816527,-8.054369694575668
1741199033238662000,9.478661865234375,-2.9076287369221445,-1.8774515764474868,-7.956440066221356
1741199033248632800,9.4886328125,-3.136770085507631,-1.6948101132303475,-7.666426608043909
1741199033258603800,9.498603759765626,-3.4080569236442444,-1.4757850849896668,-7.240740943095088
1741199033268575000,9.508574951171875,-3.865316122986376,-1.2557470803141593,-6.719748399510979
1741199033278546000,9.5185458984375,-4.441092103898525,-1.0241595076203345,-6.101223117935657
1741199033288516900,9.528516845703125,-5.007696059578657,-0.804431299546361,-5.395500614422559
1741199033298487000,9.538487060546874,-5.406081629669666,-0.5417489158868789,-4.686232401126623
1741199033308457700,9.548457763671875,-5.636194453635811,-0.3887006269007921,-3.943006973171234
1741199033318428700,9.5584287109375,-5.6660839804649346,-0.3453571597367525,-3.281041778320074
1741199033328400000,9.56839990234375,-5.617523070913553,-0.2637888835966587,-2.642970669275522
1741199033338370800,9.578370849609374,-5.470895170363783,-0.1948386814892292,-2.026405874118209
1741199033348342000,9.588342041015625,-5.299579403281212,-0.050076574811339376,-1.4220149163573979
1741199033358312700,9.598312744140625,-5.046134219044447,0.2589250769525766,-0.901267871966958
1741199033368283600,9.60828369140625,-4.682894781136513,0.7189718611866235,-0.3403162429600954
1741199033378254600,9.618254638671875,-4.315600514879822,1.1864005723655222,0.41600072175860403
1741199033388225500,9.6282255859375,-4.022322501948476,1.5665461368888616,1.1342968756407499
1741199033398196700,9.63819677734375,-3.604362755076587,1.935226889067888,1.740651242429018
1741199033408167700,9.648167724609374,-3.127048317438364,2.386632686206698,2.3540870919108388
1741199033418137600,9.6581376953125,-2.5133108546614644,2.850188355344534,2.7896733886271714
1741199033428108800,9.66810888671875,-1.9790894116699695,3.324719884265959,3.2700895916730164
1741199033438079500,9.67807958984375,-1.5861679522037506,3.668854808731377,3.750271985962987
1741199033448050700,9.68805078125,-1.132026884882152,4.050575952008367,4.104474715456366
1741199033458021600,9.698021728515625,-0.5476020258292555,4.362032595708966,4.4243531505435705
1741199033467992600,9.70799267578125,0.09828121827095747,4.6292906167209145,4.691019635403156
1741199033477962800,9.717962646484375,0.6714305039413273,4.932682611909509,4.854577043443918
1741199033487933700,9.72793359375,1.0402744838580489,5.292650480800867,4.966868374627828
1741199033497904600,9.737904541015626,1.382072928199917,5.642609581375122,4.993462367042899
1741199033507875600,9.74787548828125,1.6455128522284328,6.054112991714478,4.939421564775705
1741199033517846500,9.757846435546876,1.7232653694726525,6.565518791785836,4.818412674129009
1741199033527817700,9.767817626953125,1.656435082128644,7.081890105310082,4.407254131704569
1741199033537787600,9.77778759765625,1.0093901007726789,7.674308301204443,3.378827614289522
1741199033547758600,9.787758544921875,-0.04114274224936962,8.248692243236302,2.570595168894529
1741199033557729800,9.797729736328124,-0.47846200023815033,8.496139063841104,2.465356678831577
1741199033567700700,9.80770068359375,-0.7510683965407311,8.747012351763248,2.628456990754604
1741199033577671400,9.81767138671875,-0.9026951282911002,8.939227114489674,3.0150661983340976
1741199033587642600,9.827642578125,-0.9954267496109008,9.056967943251133,3.566775951743126
1741199033597612500,9.837612548828124,-1.3085847904019057,9.234232389605046,4.209269553405046
1741199033607583500,9.84758349609375,-1.4777517088875174,9.745112704497576,4.442377467533945
1741199033617554700,9.8575546875,-1.7194503412291406,10.53565868655443,4.378102856022119
1741199033627525600,9.867525634765625,-1.8798362796269357,11.22168397142887,4.7759828146785495
1741199033637496800,9.877496826171875,-1.7377946839541196,11.677352686709165,5.720061654368043
1741199033647466800,9.887466796875,-1.6697879001766442,11.677370222365855,5.7047413356393575
1741199033657437400,9.8974375,-1.0147761777251958,12.026643094241619,6.725523475781083
1741199033667408600,9.90740869140625,-0.24579320817887781,12.562348053789139,7.559539181730151
1741199033677379600,9.917379638671875,0.21925123821198939,13.164190496110916,7.960986477479338
1741199033687350800,9.927350830078124,0.29107582671195265,13.69108554173708,7.787613193345069
1741199033697321700,9.93732177734375,0.44110418335497376,13.660547780132292,7.1302809189915655
1741199033707291600,9.947291748046876,0.45126551188528535,12.742713973289728,6.183721368402242
1741199033717262800,9.957262939453125,0.2825387383826077,11.271992601430416,5.074968099340796
1741199033727233500,9.967233642578124,0.3519021974660456,9.65959130681753,3.5144811163604257
1741199033737204500,9.97720458984375,0.2706920871138572,8.109486017119885,2.2155682635366913
1741199033747175700,9.98717578125,0.27169980285167694,6.5049348514854906,1.3143997602909803
1741199033757145600,9.9971455078125,0.3490478309482336,5.045267957603931,0.5932739359408616
1741199033767116500,10.007116455078124,0.6073918931424618,3.936365635460615,0.3374900796234607
1741199033777087700,10.017087646484375,0.7711636745862662,3.0308722547531124,0.5305845477938652
1741199033787058700,10.02705859375,0.7845553633399307,2.2878695296376943,0.9492465977162122
1741199033797029600,10.037029541015626,0.7238235390014947,1.7551678435593843,1.401180802643299
1741199033807000600,10.04700048828125,0.7768401127874851,1.3046060960292816,1.7072142522513865
1741199033816970500,10.056970458984376,0.9106513479925692,0.8248165004491805,1.864474605974555
1741199033826941700,10.066941650390625,1.0839930679447949,0.29798867484033104,1.9070722232073545
1741199033836912600,10.07691259765625,1.2122989837318658,-0.20271277586519718,1.8381074080526827
1741199033846883600,10.086883544921875,1.2163374454677105,-0.6998334454745054,1.644056662070751
1741199033856854800,10.096854736328124,1.1072253288418055,-1.1626274825900793,1.355171331140399
1741199033866825500,10.106825439453125,0.9724084237255155,-1.556544967356324,1.0459142433106898
1741199033876795600,10.116795654296874,0.7847669602639973,-1.8062147247076032,0.8637275381237268
1741199033886766600,10.1267666015625,0.5418710809618235,-1.9581436542749404,0.7954173874855041
1741199033896737500,10.136737548828124,0.13978373374342917,-2.0272341416358945,0.8933832561969757
1741199033906708700,10.146708740234375,-0.3324861338563263,-1.9302374102175235,1.0331523768931627
1741199033916679700,10.1566796875,-0.6548410420596599,-1.6517361106574535,0.9395423653036356
1741199033926650600,10.166650634765626,-0.9425555756449698,-1.1117805079281329,0.5488491032809019
1741199033936620800,10.176620849609375,-1.3609370550602673,-0.24083470898866652,-0.0895201119273901
1741199033946591500,10.186591552734376,-1.6196275926046073,0.7331377491831779,-0.8197101172208785
1741199033956562400,10.1965625,-1.8167635912507771,1.5451380226790905,-1.570002999344468
1741199033966533600,10.20653369140625,-2.2126140899062157,2.1473732637107372,-2.220032257208228
1741199033976504600,10.216504638671875,-2.5792916855692862,2.3823972405940292,-2.8710674772441385
1741199033986475800,10.226475830078124,-2.757676660385728,2.0928455547094345,-3.6948575572550295
1741199033996445700,10.23644580078125,-3.0264544383108616,1.430634860664606,-4.650962350302934
1741199034006416600,10.246416748046874,-3.467471527904272,0.491048656219244,-5.595555569255351
1741199034016387600,10.2563876953125,-3.819761701774597,-0.6302589739888906,-6.518671700415015
1741199034026358500,10.266358642578124,-3.9540018299162387,-1.6406073983997105,-7.472665784919261
1741199034036329700,10.276329833984375,-4.137007450270652,-2.211415820032358,-8.406017478889227
1741199034046300700,10.28630078125,-4.502251798260212,-2.2181144408881663,-9.30234906349778
1741199034056270600,10.2962705078125,-5.198098219925165,-1.7470885820001363,-10.17437038271427
1741199034066241800,10.30624169921875,-6.310148776966333,-1.059587963876128,-10.798896950531006
1741199034076212700,10.316212646484376,-7.5146286113798615,-0.5587064804285764,-11.067024155592918
1741199034086183400,10.326183349609375,-8.63298148343563,-0.5090034151047468,-10.800127953630685
1741199034096154600,10.336154541015626,-9.364843805855513,-0.9042232146412134,-10.228625704514979
1741199034106125600,10.34612548828125,-9.648507018223404,-1.385360133177042,-9.695355863159895
1741199034116095500,10.356095458984376,-9.801353062635659,-1.7682891909390688,-9.277439078646898
1741199034126066700,10.366066650390625,-9.94080011177063,-1.930706196773052,-9.046744655400515
1741199034136037600,10.37603759765625,-9.81563994666338,-1.8092501468807458,-9.004002076739072
1741199034146008800,10.3860087890625,-9.524929153871536,-1.341377199065685,-9.044679539564251
1741199034155979500,10.3959794921875,-8.991988982862233,-0.8184218309760093,-8.868197768020629
1741199034165950500,10.405950439453125,-8.113605727398395,-0.574658667320013,-8.27645118777752
1741199034175920600,10.415920654296874,-7.0732619776964185,-0.5862947445780039,-7.243495794761181
1741199034185891600,10.4258916015625,-6.037323184955119,-0.8999187954455613,-6.27421470927596
1741199034195862500,10.435862548828124,-5.3478983207702635,-1.4066536810964345,-5.736332990211248
1741199034205833700,10.445833740234375,-5.231096818685531,-1.9228496380537747,-5.726570890131592
1741199034215804700,10.4558046875,-5.428765755164623,-2.3539520673543213,-6.128517952096462
1741199034225775600,10.465775634765626,-5.516188018029928,-2.641460849234462,-6.567551174396276
1741199034235745800,10.475745849609375,-5.379179594218731,-2.8102549888849255,-6.8922408091574905
1741199034245716500,10.485716552734376,-4.966898769766092,-2.7154537216842174,-7.246950319129228
1741199034255687700,10.495687744140625,-4.086026620095968,-2.0631302154034374,-7.368127552080154
1741199034265658600,10.50565869140625,-3.255277222466469,-1.2012047582656145,-7.161471591547131
1741199034275629600,10.515629638671875,-2.5882746179699896,-0.29317104542553424,-7.020227137601375
1741199034285600800,10.525600830078124,-2.211998003834486,0.8693851254940033,-6.933768751332163
1741199034295570700,10.53557080078125,-2.2894705350935456,2.0322002396106718,-6.630889966362714
1741199034305541600,10.545541748046874,-2.805297074216604,3.052297904619574,-5.880408868190646
1741199034315512600,10.5555126953125,-3.506705806183815,3.7515363068103786,-4.844433250570297
1741199034325483500,10.5654833984375,-3.9964439643263816,4.03618911473751,-3.662625266692042
1741199034335454700,10.575454833984375,-4.3696939241170885,3.8948195731073616,-2.5160265433609483
1741199034345425700,10.58542578125,-4.684923072093725,3.43110725210309,-1.7528250798255205
1741199034355395300,10.595395263671875,-5.006055891156196,2.858069463983178,-1.184741114720702
1741199034365366300,10.6053662109375,-5.054674083852768,2.344299857389927,-0.8142758172124623
1741199034375337200,10.615337158203126,-4.756718726760148,1.9441993000745772,-0.5887263556391
1741199034385308200,10.62530810546875,-4.256584262287617,1.7142922278136015,-0.3626104923546314
1741199034395279000,10.635279052734376,-3.7270237968444824,1.6130401770383118,0.026671149304509163
1741199034405250300,10.645250244140625,-3.1356898890554903,1.4923212092489002,0.5823509753882885
1741199034415220200,10.65522021484375,-2.4961679966807364,1.3516513403207062,1.164661034244299
1741199034425191200,10.665191162109375,-2.0991677434682843,1.3418430630117655,1.8132348326027392
1741199034435162400,10.675162353515624,-1.6697680264323949,1.4562158766448496,2.4609827015310524
1741199034445133300,10.68513330078125,-1.1710253085792064,1.5578776772648095,2.991603489682078
1741199034455104000,10.69510400390625,-0.7130886483669281,1.6786691257685422,3.6048020232766866
1741199034465075200,10.7050751953125,-0.3137678432524204,1.8401421287506818,4.264266048961877
1741199034475045000,10.715045166015624,0.024735760795138773,1.9484201326400041,4.87378267917335
1741199034485016000,10.72501611328125,0.2804015802234411,1.9674065726608037,5.267545850160718
1741199034494987300,10.7349873046875,0.36956330716721714,2.0096584451958535,5.460930241188406
1741199034504958200,10.744958251953125,0.48075288765430446,2.129355084200203,5.586350518536567
1741199034514929400,10.754929443359375,0.7194821487963199,2.444413259524107,5.6257572307735675
1741199034524900000,10.764900146484376,1.0347932029027491,2.8766031918004153,5.545416450601816
1741199034534870300,10.774870361328125,1.4593787245899439,3.362741864146292,5.364985064649582
1741199034544841200,10.78484130859375,1.8267355346888303,4.0831802907541395,5.2140778793454166
1741199034554812200,10.794812255859375,2.041526286360621,5.130978740376234,4.937728789383173
1741199034564783400,10.804783447265624,2.185445512473583,6.6698951120615,4.626375606057048
1741199034574754300,10.81475439453125,2.3372376639187333,8.39345844156742,4.276504183766246
1741199034584725200,10.824725341796874,2.361207737571001,10.09751393752694,4.0885330499589445
1741199034594695400,10.8346953125,1.8127315592557192,11.23537698121667,4.050526852169632
1741199034604666000,10.844666015625,0.7266647537767886,11.440517276489734,3.7777521135628223
1741199034614637000,10.854636962890625,-0.5566565621614455,10.71356376889944,3.3735172329217193
1741199034624608300,10.864608154296874,-1.2901871100544928,9.29938436847329,3.076584204614162
1741199034634579200,10.8745791015625,-1.7813094160318375,8.09921713656187,2.33750479042232
1741199034644549000,10.884549072265624,-2.0479507664501666,7.82483671632409,1.3141624444037676
1741199034654520300,10.894520263671875,-1.9226117376446723,8.155459832787514,1.1755828257530927
1741199034664491300,10.9044912109375,-2.0860627627015114,8.286994793623686,2.63342601133883
1741199034674462200,10.914462158203126,-2.4074492642641068,7.987419141852855,4.799193594396114
1741199034684433200,10.92443310546875,-2.4606606299698353,7.634177366346121,6.477506746333837
1741199034694404000,10.934404052734376,-2.307747365540266,7.392457691216468,7.380407187938689
1741199034704374300,10.944374267578125,-1.826254473173618,7.251877838659286,7.491193959778546
1741199034714345200,10.95434521484375,-0.7121440609931945,7.817561756885051,7.132614914897084
1741199034724316200,10.964316162109375,0.6911480347156524,8.61985195274949,6.542536560127139
1741199034734287400,10.974287353515624,2.0842636043250558,9.057298198118806,6.060595923992991
1741199034744258000,10.984258056640625,3.2265847964674235,8.963251548677682,5.641535230141878
1741199034754229200,10.994229248046874,3.839662918552756,8.518018887215852,5.057785493871569
1741199034764199200,11.00419921875,3.9933343078732486,8.064501212489604,4.410189600634575
1741199034774170000,11.014170166015624,3.794108205080032,7.428694541245698,3.6453543984174726
1741199034784141300,11.024141357421875,3.3819220731735227,6.50597997662425,2.9512820006877183
1741199034794112300,11.0341123046875,2.880225766211748,5.57851266451776,2.5990859348416326
1741199034804083200,11.044083251953126,2.2607168804265556,4.800789339154958,2.606522806844115
1741199034814054100,11.05405419921875,1.8313544266611337,4.166356294351816,2.7142677267700432
1741199034824024300,11.0640244140625,1.5885668300390243,3.533461126640439,2.882104419565201
1741199034833995000,11.0739951171875,1.4912819293290376,2.9266338816434145,2.9229198295563457
1741199034843966200,11.08396630859375,1.4810678476981818,2.277943178907037,2.767633406254649
1741199034853937200,11.093937255859375,1.5498853633366525,1.5639946988403797,2.424232056760788
1741199034863908400,11.103908447265624,1.7264771711260078,0.7382096456199884,1.931556676122546
1741199034873879300,11.11387939453125,1.9272382284015417,-0.20147885015606878,1.3299924662202596
1741199034883849200,11.12384912109375,2.088245367437601,-1.1752157460063695,0.808220754957199
1741199034893820200,11.133820068359375,2.183456530613452,-2.0353303543299437,0.37200726625323294
1741199034903791000,11.143791015625,2.24487516817227,-2.782558588185906,0.039891865405440326
1741199034913762300,11.15376220703125,2.2083092323191464,-3.3306495665758846,-0.09438742570281028
1741199034923733200,11.163733154296875,2.049157658021897,-3.6210838805139063,-0.025362989315390584
1741199034933704200,11.1737041015625,1.8859335735887288,-3.6351363712638616,0.050858665099740026
1741199034943674400,11.18367431640625,1.6292080525070427,-3.5092905619800088,0.00021568857729434965
1741199034953645300,11.193645263671876,1.2134561909429729,-3.191010209739208,-0.3503063065767288
1741199034963616300,11.2036162109375,0.740623721024394,-2.5881074447095394,-0.9571996025472879
1741199034973587200,11.213587158203126,0.2518416945628822,-1.8297224415451288,-1.6439035173356533
1741199034983558100,11.22355810546875,-0.30455270953103897,-0.9478893378883599,-2.204808384591341
1741199034993528000,11.233528076171876,-0.9168921420782804,-0.08085983560979366,-2.53056097240895
1741199035003499300,11.243499267578125,-1.551608679997921,0.5508411538809538,-2.802874815505743
1741199035013470200,11.25347021484375,-2.0800421872377393,0.9284382029652595,-2.9705507647812364
1741199035023441400,11.26344140625,-2.501284316781163,0.9788760123044252,-3.240930424945056
1741199035033412000,11.273412109375,-3.0709254482001063,0.6235264508634806,-3.6426281883239744
1741199035043383000,11.283383056640625,-3.6276468922913074,0.14680091902911663,-4.215581513030827
1741199035053353200,11.293353271484374,-4.071431108510494,-0.3768798407256603,-5.018038589894771
1741199035063324200,11.30332421875,-4.524909035748243,-0.857542712008953,-5.957224981367587
1741199035073295000,11.313295166015624,-4.879079032015801,-1.1691297040909527,-6.9904702972412105
1741199035083266300,11.323266357421875,-5.145245750659704,-1.1789654539287089,-8.013965787994861
1741199035093237200,11.3332373046875,-5.366263998544216,-0.8891343665808439,-8.914550938394665
1741199035103208200,11.343208251953126,-5.5797629568398,-0.49171091952025886,-9.52370984120965
1741199035113178400,11.353178466796875,-5.763927099579572,-0.17397884881198405,-9.722540222683548
1741199035123149000,11.363149169921876,-5.904423950028419,-0.0069482117027044295,-9.640902388438581
1741199035133120300,11.373120361328125,-6.046303779268264,0.04591185634732246,-9.450756248679756
1741199035143091200,11.38309130859375,-6.198603295713663,-0.08506079443097114,-9.219648568457364
1741199035153062100,11.393062255859375,-6.341750368410349,-0.3738689684718847,-9.241466432511807
1741199035163032300,11.4030322265625,-6.412703142511845,-0.51192544003129,-9.782191850569843
1741199035173003300,11.413003173828125,-6.344944196015596,-0.36996143963932987,-10.58651910521984
1741199035182974500,11.422974365234374,-6.175483116889,-0.18208675194382667,-10.981012928569315
1741199035192945200,11.432945068359375,-5.918833583652972,-0.23728081589937208,-10.849812314254045
1741199035202916000,11.442916015625,-5.417420185285806,-0.588625817874074,-10.331734196811913
1741199035212887300,11.45288720703125,-4.542414297300577,-1.1754448785871268,-9.577745382779836
1741199035222857200,11.462857177734374,-3.5001392872750756,-1.9790245297402143,-8.976053162583709
1741199035232828200,11.472828125,-2.5859903064250944,-2.737126039788127,-8.806454720813035
1741199035242799400,11.48279931640625,-2.093877820366621,-3.200782831212878,-8.928105416494608
1741199035252770300,11.492770263671876,-1.8727356538414954,-3.287490808328986,-8.979564385575056
1741199035262741200,11.5027412109375,-1.7246540473520755,-3.070521543574333,-8.7262150629282
1741199035272712200,11.512712158203126,-1.5765011291921138,-2.6024960355460642,-8.125473275324701
1741199035282682000,11.52268212890625,-1.4064298092126846,-1.9773563042670488,-7.424566647660732
1741199035292653300,11.5326533203125,-1.2500088289231062,-1.2565151420772074,-6.8581538306385275
1741199035302624300,11.542624267578125,-1.3305840023726223,-0.3745791625678539,-6.468614999347925
1741199035312595200,11.55259521484375,-1.6093085892945527,0.7147931141972541,-6.108895552259683
1741199035322566100,11.562566162109375,-1.9375474409699438,1.8700947839438915,-5.532986008095741
1741199035332536300,11.572536376953124,-2.3296862256258724,2.8699668225258588,-4.7097506393581625
1741199035342507000,11.582507080078125,-2.755866980615258,3.662053019762039,-3.71839216209948
1741199035352478200,11.592478271484374,-3.1560031937658786,4.216228286501765,-2.688751008197665
1741199035362449400,11.602449462890625,-3.5754853278994556,4.510250395798683,-1.7729367244839667
1741199035372420400,11.61242041015625,-3.864188288000226,4.4584249314934015,-0.9338584744483232
1741199035382391600,11.6223916015625,-3.9931647965252397,4.135533286064863,-0.12690087129473684
1741199035392361500,11.632361572265625,-3.9747242999494072,3.653127370506525,0.5675824453234672
1741199035402332400,11.64233251953125,-3.9064743550658223,3.1026427749782797,1.163687220776081
1741199035412303400,11.652303466796875,-3.776228849518299,2.6574177123010156,1.8041928634911775
1741199035422274300,11.6622744140625,-3.4073025981456038,2.2051170121490955,2.436365562146902
1741199035432245200,11.672245361328125,-2.916238744357228,1.8238953428268432,2.9939526831567287
1741199035442216400,11.682216552734374,-2.3294266979068516,1.4989561172187327,3.504325633049011
1741199035452186400,11.692186279296875,-1.6894710902899504,1.2734943339288234,3.9218420200675723
1741199035462157300,11.7021572265625,-1.1164631127864122,1.1391951690763233,4.232141310426592
1741199035472128500,11.71212841796875,-0.7225871290743351,1.0903671330213547,4.431466197419167
1741199035482099200,11.72209912109375,-0.4556598743867129,1.159675647047162,4.549350818565488
1741199035492070400,11.7320703125,-0.07700622892156243,1.3644853951916098,4.599942357161641
1741199035502040300,11.742040283203124,0.3188169433355331,1.6550357367247341,4.632188091728091
1741199035512011300,11.75201123046875,0.6665174513280391,1.9832149671673773,4.701460949918627
1741199035521982500,11.761982421875,0.9291074805289506,2.507244978751242,4.843562897476554
1741199035531953400,11.771953369140626,1.2790617587976156,3.157734255342185,5.148145563754439
1741199035541924400,11.78192431640625,1.6865316758371889,3.70583224799484,5.525403005620837
1741199035551895300,11.791895263671876,1.968805771934241,4.163174157184362,5.792001685941219
1741199035561865200,11.801865234375,2.0773750138550997,4.840737610922753,5.853776297330856
1741199035571836200,11.811836181640626,2.168508844589442,5.5048225744068615,5.815355673521757
1741199035581807400,11.821807373046875,2.2837673550158737,6.027488019639253,5.723136239507794
1741199035591778300,11.8317783203125,2.315263294128328,6.483885633715987,5.538724844008684
1741199035601749500,11.84174951171875,2.1408969073034823,7.066846849957108,5.097893047854304
1741199035611719400,11.851719482421874,1.779986058473587,7.866375764414667,4.45479095890522
1741199035621690400,11.8616904296875,1.1016380302287638,8.635378607705235,3.559638354948163
1741199035631661300,11.871661376953124,0.30617198129594325,9.02381386166811,3.013332506409287
1741199035641632300,11.88163232421875,-0.14038703339882194,8.774731548815964,3.0718799724459647
1741199035651603500,11.891603515625,-0.45215639631040394,8.23394709404707,3.2099148166954516
1741199035661574400,11.901574462890625,-0.5894371342569589,7.715849102860688,2.9917069500565527
1741199035671544300,11.91154443359375,-0.6923083106666803,7.406171743792295,2.302196745675802
1741199035681515500,11.921515625,-0.9894885186683386,7.3870198840767145,1.5403490348368882
1741199035691486500,11.931486572265625,-1.4985820232093334,7.5869234477400775,1.275485215485096
1741199035701457200,11.94145703125,-2.0386843409329654,7.856838120740652,1.664848105686903
1741199035711428400,11.951428466796875,-2.466748425450921,8.264663719350098,2.5424855112195015
1741199035721399300,11.9613994140625,-2.7139164291143416,9.065562168595195,3.719447808632254
1741199035731369200,11.971369140625,-2.2524416579037903,9.673029465061425,4.808685060840845
1741199035741340400,11.98134033203125,-1.080813707256317,9.174026634967326,5.093301628410816
1741199035751311400,11.991311279296875,0.892066401444748,8.789546840631962,4.93480617993474
1741199035761282600,12.001282470703124,2.6619635390371084,8.238765307983755,4.080469570490718
1741199035771253200,12.011253173828125,3.2878625642508266,6.707638275000453,2.7594378248393534
1741199035781223400,12.021223388671874,3.2557197055369613,5.230897496721148,1.802339929100871
1741199035791194400,12.0311943359375,2.999454203182459,4.070179062622786,0.9314391383469104
1741199035801165300,12.041165283203124,2.463611296468973,3.0228719036489724,0.25954700824320315
1741199035811136300,12.05113623046875,1.859603931198269,2.237044182285666,0.01502571969628334
1741199035821107500,12.061107421875,1.4034874721504746,1.7192752769231796,0.17123334949612617
1741199035831078400,12.071078369140626,1.2298909006543457,1.4802759666681289,0.551661238092184
1741199035841048300,12.08104833984375,1.3137630698226392,1.3888351158112286,0.8824316540718078
1741199035851019300,12.091019287109376,1.4730905852086842,1.2828233032882213,1.1122194838672876
1741199035860990200,12.100990234375,1.7261523230858147,0.981912603521347,1.1849246545940637
1741199035870961400,12.11096142578125,2.0316563419923184,0.456439699652791,1.0450321997791527
1741199035880932400,12.120932373046875,2.3857851294666528,-0.2881540940463543,0.7567319752603768
1741199035890902300,12.13090234375,2.6700293565928934,-1.2285124519079922,0.4590682945907116
1741199035900873500,12.14087353515625,2.866111023880541,-2.1818343362390995,0.2895288895308971
1741199035910844400,12.150844482421874,2.965036385273933,-2.9579969881564376,0.27262743909060955
1741199035920815000,12.160815185546875,2.777335885101557,-3.409014662760496,0.317092019239068
1741199035930786300,12.170786376953124,2.4265210444808005,-3.5962598203808067,0.4847644613832235
1741199035940757200,12.18075732421875,1.9591614530153572,-3.5366806732088327,0.6728758804440498
1741199035950727400,12.1907275390625,1.482691941768676,-3.3032670541316267,0.8472568803161382
1741199035960698400,12.200698486328125,0.9451042372144758,-3.028760961687565,0.9034317720025777
1741199035970669300,12.21066943359375,0.3619244097866118,-2.768616572073102,0.8066986599564552
1741199035980640500,12.220640625,-0.22234218996465205,-2.3692314695507286,0.525933507117629
1741199035990611200,12.230611083984375,-0.7948521548181772,-1.830575843504071,0.2231634432196617
1741199036000581400,12.240581298828126,-1.4053560425013303,-1.1619406693696974,0.10898410633206367
1741199036010552300,12.25055224609375,-2.089718362599611,-0.365778016474843,0.2619967394828796
1741199036020523300,12.260523193359376,-2.6892981206864115,0.327060455545783,0.48735856952965256
1741199036030494500,12.270494384765625,-3.4610692596465347,0.8757318641722202,0.5755699369460344
1741199036040465400,12.28046533203125,-4.516514716890454,1.2109867320895193,0.6516220800131559
1741199036050435300,12.290435302734375,-5.9937108377218244,1.282540394693613,0.6739549078524112
1741199036060406500,12.300406494140624,-7.879331692099571,1.1666828954607247,0.37605449581742284
1741199036070377500,12.31037744140625,-9.465611872506141,0.9178051652699708,-0.46272798614203925
1741199036080348200,12.32034814453125,-10.210929888826609,0.5517559306383133,-1.3508008609712123
1741199036090319400,12.3303193359375,-10.622414594465493,0.22299919256865977,-2.5755238574683665
1741199036100290300,12.340290283203124,-10.355203919726609,-0.23103987568318843,-4.799624094767868
1741199036110260200,12.35026025390625,-9.461392208984494,-0.7702204023867845,-6.880541019013523
1741199036120231400,12.3602314453125,-7.832076019927859,-1.1255857459187506,-8.313646653705835
1741199036130202400,12.370202392578125,-6.09444850923419,-1.3298404905289412,-9.178917914140223
1741199036140173300,12.38017333984375,-4.672093401136994,-1.6103525453895329,-9.739162856182455
1741199036150144300,12.390144287109376,-3.215883954232931,-2.2249165221184493,-9.391038569819926
1741199036160114200,12.4001142578125,-2.5276690503597257,-2.723494404798746,-8.40832224870026
1741199036170085400,12.41008544921875,-2.6380238605231043,-2.751493587836623,-7.708764697557688
1741199036180056300,12.420056396484375,-2.735456645271182,-2.2331670485913753,-7.288598672813177
1741199036190027300,12.43002734375,-3.591559095343947,-1.289775022122264,-6.767505591464042
1741199036199998500,12.43999853515625,-4.9830187144398685,-0.47463586607873437,-6.299570099806785
1741199036209969400,12.449969482421874,-6.137962656790018,-0.11811784538030623,-6.016504268810152
1741199036219939300,12.459939208984375,-6.87043931171596,-0.19212240826785562,-5.759088427376747
1741199036229910300,12.46991015625,-7.243258478873968,-0.8437807286381721,-5.585720403939486
1741199036239881200,12.479881103515625,-7.2768164650827645,-1.8625725717455148,-5.531281542265415
1741199036249852400,12.489852294921874,-6.9533829678624866,-2.834188237658143,-5.702810075315833
1741199036259823400,12.4998232421875,-6.346722311604022,-3.5103695893883704,-6.043790919664501
1741199036269793300,12.509793212890624,-5.642324919214844,-3.62626157541275,-6.409989791899919
1741199036279764500,12.519764404296875,-4.990528651678562,-3.2833792813569307,-6.674336309379338
1741199036289735400,12.5297353515625,-4.30047951811552,-2.8829379477798938,-6.757527218285203
1741199036299706400,12.539706298828126,-3.658828797018528,-2.3280250144153833,-6.699149263596534
1741199036309677300,12.54967724609375,-3.240416337943077,-1.6622130810081959,-6.448471205985546
1741199036319647200,12.559647216796876,-3.116020142945647,-0.7534358563244342,-6.0951850068151945
1741199036329618400,12.569618408203125,-3.0493156739383935,0.11281564731895923,-5.808021677371859
1741199036339589400,12.57958935546875,-3.0753637229084965,0.6571580868303776,-5.212303855410218
1741199036349560300,12.589560302734375,-3.395457262051105,0.8871826479911804,-4.402967832687497
1741199036359530800,12.59953076171875,-3.69011942281723,1.0106108747392892,-3.6640906630694863
1741199036369500700,12.609500732421875,-3.9223774421185253,1.2669950350373982,-3.2009523425608872
1741199036379472000,12.619471923828126,-4.1716444638878105,1.6094640721172093,-2.7024884416490793
1741199036389442600,12.629442626953125,-4.11420349778831,1.8214070331424475,-1.9117396304965018
1741199036399413800,12.639413818359374,-3.7625118743330237,1.9591724128007888,-0.9647586396247148
1741199036409384700,12.649384765625,-3.2953806847959757,2.1760317874401807,-0.022597616255283354
1741199036419355600,12.659355712890624,-2.904695021557808,2.2261258979082106,0.90717621922791
